loggingTime,loggingSample,identifierForVendor,deviceID,locationTimestamp_since1970,locationLatitude,locationLongitude,locationAltitude,locationSpeed,locationCourse,locationVerticalAccuracy,locationHorizontalAccuracy,locationFloor,locationHeadingTimestamp_since1970,locationHeadingX,locationHeadingY,locationHeadingZ,locationTrueHeading,locationMagneticHeading,locationHeadingAccuracy,accelerometerTimestamp_sinceReboot,accelerometerAccelerationX,accelerometerAccelerationY,accelerometerAccelerationZ,gyroTimestamp_sinceReboot,gyroRotationX,gyroRotationY,gyroRotationZ,motionTimestamp_sinceReboot,motionYaw,motionRoll,motionPitch,motionRotationRateX,motionRotationRateY,motionRotationRateZ,motionUserAccelerationX,motionUserAccelerationY,motionUserAccelerationZ,motionAttitudeReferenceFrame,motionQuaternionX,motionQuaternionY,motionQuaternionZ,motionQuaternionW,motionGravityX,motionGravityY,motionGravityZ,motionMagneticFieldX,motionMagneticFieldY,motionMagneticFieldZ,motionMagneticFieldCalibrationAccuracy,activityTimestamp_sinceReboot,activity,activityActivityConfidence,activityActivityStartDate,pedometerStartDate,pedometerNumberofSteps,pedometerDistance,pedometerFloorAscended,pedometerFloorDescended,pedometerEndDate,altimeterTimestamp_sinceReboot,altimeterReset,altimeterRelativeAltitude,altimeterPressure,IP_en0,IP_pdp_ip0,deviceOrientation,batteryState,batteryLevel,state
2016-03-02 02:47:58.802,1,234B9614-18C8-49ED-8B56-CAB6C4F40872,my_iOS_device_1,1456908478.000047,40.79922629058435,-96.68578449645702,367.1981,0.33,255.5859375,4,5,-9999,1456908478.785018,17.1601390838623,41.96258544921875,-4.53076171875,112.5705413818359,109.2934036254883,26,11212.22673466667,0.0736846923828125,1.016403198242188,0.02874755859375,11212.20259866667,-0.07319618361250084,0.06690979185936879,-0.01175466041939174,11212.16759966667,0.3449810962812302,1.950004203882596,-1.491332991731682,-0.05215810239315033,0.02665761858224869,-0.01623956114053726,-0.004740207456052303,0.0207184161990881,-0.008221225813031197,XArbitraryCorrectedZVertical,0.4794452294250102,-0.5336898490088515,0.4824736870658788,-0.5025202068927828,0.07374045252799988,0.996844470500946,0.0293851662427187,14.94252777099609,42.11719131469727,-4.459755897521973,1,11211.80637066667,walking,0,2016-03-02 02:47:58.364,2016-03-02 02:47:07.556,27,16.04511,0,1,2016-03-02 02:47:55.810,11210.994688,0,-0.1391296,97.39251,192.168.1.101,100.78.239.175,2,1,0.36,0
2016-03-02 02:47:58.841,2,234B9614-18C8-49ED-8B56-CAB6C4F40872,my_iOS_device_1,1456908478.000047,40.79922629058435,-96.68578449645702,367.1981,0.33,255.5859375,4,5,-9999,1456908478.785018,17.1601390838623,41.96258544921875,-4.53076171875,112.5705413818359,109.2934036254883,26,11212.25703066667,0.0686492919921875,1.006881713867188,0.0287628173828125,11212.23762166667,-0.07862210801742828,0.07969003561455006,-0.003314037660494604,11212.23762166667,0.3945790306761216,2.002360541660815,-1.49088555781714,-0.05984851717948914,0.05010014027357101,0.002816199325025082,-0.001065079355612397,0.01924341358244419,-0.0002941670536529273,XArbitraryCorrectedZVertical,0.4800019901578997,-0.5350638557342767,0.482443967256018,-0.5005522731838297,0.07250673323869705,0.9968088269233704,0.03339048102498055,14.88567447662354,42.15366363525391,-4.302464485168457,1,11211.80637066667,walking,0,2016-03-02 02:47:58.364,2016-03-02 02:47:07.556,27,16.04511,0,1,2016-03-02 02:47:55.810,11210.994688,0,-0.1391296,97.39251,192.168.1.101,100.78.239.175,2,1,0.36,0
2016-03-02 02:47:58.861,3,234B9614-18C8-49ED-8B56-CAB6C4F40872,my_iOS_device_1,1456908478.000047,40.79922629058435,-96.68578449645702,367.1981,0.33,255.5859375,4,5,-9999,1456908478.84369,17.0213794708252,42.101806640625,-4.1341552734375,112.5872497558594,109.3101119995117,26,11212.28732766667,0.0758819580078125,1.01129150390625,0.03472900390625,11212.27263766667,-0.07646068647671997,0.08606617589641777,-0.005417402289439186,11212.23762166667,0.3945790306761216,2.002360541660815,-1.49088555781714,-0.05984851717948914,0.05010014027357101,0.002816199325025082,-0.001065079355612397,0.01924341358244419,-0.0002941670536529273,XArbitraryCorrectedZVertical,0.4800019901578997,-0.5350638557342767,0.482443967256018,-0.5005522731838297,0.07250673323869705,0.9968088269233704,0.03339048102498055,14.88567447662354,42.15366363525391,-4.302464485168457,1,11211.80637066667,walking,0,2016-03-02 02:47:58.364,2016-03-02 02:47:07.556,27,16.04511,0,1,2016-03-02 02:47:55.810,11210.994688,0,-0.1391296,97.39251,192.168.1.101,100.78.239.175,2,1,0.36,0
2016-03-02 02:47:58.906,4,234B9614-18C8-49ED-8B56-CAB6C4F40872,my_iOS_device_1,1456908478.000047,40.79922629058435,-96.68578449645702,367.1981,0.33,255.5859375,4,5,-9999,1456908478.84369,17.0213794708252,42.101806640625,-4.1341552734375,112.5872497558594,109.3101119995117,26,11212.31762366667,0.078277587890625,1.006988525390625,0.038299560546875,11212.27263766667,-0.07646068647671997,0.08606617589641777,-0.005417402289439186,11212.27263766667,0.4168016950012337,2.026486246920063,-1.490315824451647,-0.05768656730651855,0.05647649988532066,0.0007116748602129519,-0.004563137888908386,0.008195914328098297,-0.003946688026189804,XArbitraryCorrectedZVertical,0.480055642293762,-0.5359444719298887,0.482484268408475,-0.4995188024970179,0.07219009101390839,0.9967631697654724,0.0353797934949398,14.88774967193604,42.16495895385742,-4.182966232299805,1,11211.80637066667,walking,0,2016-03-02 02:47:58.364,2016-03-02 02:47:07.556,27,16.04511,0,1,2016-03-02 02:47:55.810,11212.30655366667,0,-0.07943726,97.39182,192.168.1.101,100.78.239.175,2,1,0.36,0
2016-03-02 02:47:58.922,5,234B9614-18C8-49ED-8B56-CAB6C4F40872,my_iOS_device_1,1456908478.000047,40.79922629058435,-96.68578449645702,367.1981,0.33,255.5859375,4,5,-9999,1456908478.902858,16.32758331298828,41.8233642578125,-4.3985595703125,112.6076507568359,109.3305130004883,26,11212.34792166667,0.0753631591796875,1.003143310546875,0.0432891845703125,11212.30764566667,-0.07751609721671837,0.07755524568474254,-0.006494118318158222,11212.30764566667,0.4374557871978146,2.048812135984867,-1.489195875021533,-0.05874193832278252,0.04796577990055084,-0.0003644103126134723,0.005217511672526598,0.01376448199152946,0.001642737188376486,XArbitraryCorrectedZVertical,0.4800680143968716,-0.5369196680222011,0.4823044017261529,-0.4986325658433788,0.07237342745065689,0.996672511100769,0.03749605640769005,14.89353370666504,42.17464447021484,-4.063036441802979,1,11211.80637066667,walking,0,2016-03-02 02:47:58.364,2016-03-02 02:47:07.556,27,16.04511,0,1,2016-03-02 02:47:55.810,11212.30655366667,0,-0.07943726,97.39182,192.168.1.101,100.78.239.175,2,1,0.36,0
2016-03-02 02:47:58.952,6,234B9614-18C8-49ED-8B56-CAB6C4F40872,my_iOS_device_1,1456908478.000047,40.79922629058435,-96.68578449645702,367.1981,0.33,255.5859375,4,5,-9999,1456908478.902858,16.32758331298828,41.8233642578125,-4.3985595703125,112.6076507568359,109.3305130004883,26,11212.37821966667,0.076904296875,1.013809204101562,0.0422210693359375,11212.34264166667,-0.08179340024349463,0.06692097713594714,-0.005485046581127199,11212.34264166667,0.4609572600365435,2.073656268851646,-1.487914973238885,-0.06301983445882797,0.03733168169856071,0.0006456879200413823,0.004335601814091206,0.005584183149039745,0.004001957830041647,XArbitraryCorrectedZVertical,0.4802404245158983,-0.5378828161491463,0.4819711809494102,-0.4977499286654736,0.07253817468881607,0.9965673089027405,0.03989757969975471,14.89353370666504,42.17464447021484,-4.063036441802979,1,11211.80637066667,walking,0,2016-03-02 02:47:58.364,2016-03-02 02:47:07.556,27,16.04511,0,1,2016-03-02 02:47:55.810,11212.30655366667,0,-0.07943726,97.39182,192.168.1.101,100.78.239.175,2,1,0.36,0
2016-03-02 02:47:58.986,7,234B9614-18C8-49ED-8B56-CAB6C4F40872,my_iOS_device_1,1456908478.000047,40.79922629058435,-96.68578449645702,367.1981,0.33,255.5859375,4,5,-9999,1456908478.963186,16.22351455688477,42.48469543457031,-4.43157958984375,112.6339492797852,109.3568115234375,26,11212.40852066667,0.0690155029296875,1.015106201171875,0.0323333740234375,11212.37767666667,-0.1031202605689582,0.05415298392178024,-0.002590989424538091,11212.37767666667,0.4880925236444482,2.101782447252818,-1.486412281557437,-0.08434711396694183,0.02456386759877205,0.003539987374097109,0.0009601925848983228,0.01480394881218672,0.0003192372096236795,XArbitraryCorrectedZVertical,0.480603455436433,-0.5388509383963939,0.4814554103209966,-0.4968507549400797,0.07267872244119644,0.9964417815208435,0.04268002882599831,14.92919731140137,42.18795013427734,-3.784447908401489,1,11211.80637066667,walking,0,2016-03-02 02:47:58.364,2016-03-02 02:47:07.556,27,16.04511,0,1,2016-03-02 02:47:55.810,11212.30655366667,0,-0.07943726,97.39182,192.168.1.101,100.78.239.175,2,1,0.36,0
2016-03-02 02:47:59.013,8,234B9614-18C8-49ED-8B56-CAB6C4F40872,my_iOS_device_1,1456908478.000047,40.79922629058435,-96.68578449645702,367.1981,0.33,255.5859375,4,5,-9999,1456908478.963186,16.22351455688477,42.48469543457031,-4.43157958984375,112.6339492797852,109.3568115234375,26,11212.43881566667,0.063934326171875,1.006103515625,0.03314208984375,11212.41268666667,-0.08392552701221208,0.06053897789968124,-0.005512743456464023,11212.37767666667,0.4880925236444482,2.101782447252818,-1.486412281557437,-0.08434711396694183,0.02456386759877205,0.003539987374097109,0.0009601925848983228,0.01480394881218672,0.0003192372096236795,XArbitraryCorrectedZVertical,0.480603455436433,-0.5388509383963939,0.4814554103209966,-0.4968507549400797,0.07267872244119644,0.9964417815208435,0.04268002882599831,14.92919731140137,42.18795013427734,-3.784447908401489,1,11212.42841066667,stationary,1,2016-03-02 02:47:59.010,2016-03-02 02:47:07.556,27,16.04511,0,1,2016-03-02 02:47:55.810,11212.30655366667,0,-0.07943726,97.39182,192.168.1.101,100.78.239.175,2,1,0.36,0
2016-03-02 02:47:59.069,9,234B9614-18C8-49ED-8B56-CAB6C4F40872,my_iOS_device_1,1456908478.000047,40.79922629058435,-96.68578449645702,367.1981,0.33,255.5859375,4,5,-9999,1456908479.020525,16.0500659942627,42.65875244140625,-4.266357421875,112.6621856689453,109.3850479125977,26,11212.46911466667,0.0647125244140625,1.009445190429688,0.033935546875,11212.44769766667,-0.09130780955391173,0.06690206869220756,-0.009886186598592148,11212.41268666667,0.5089848923045321,2.123552858289317,-1.485256705364789,-0.06515030562877655,0.03095001913607121,0.000617929850704968,-0.003696850501000881,0.01876248419284821,-0.01252319291234016,XArbitraryCorrectedZVertical,0.4808786306625252,-0.5396147015330335,0.4810956032609153,-0.4961035546985789,0.07271235436201096,0.996343731880188,0.04485656693577766,14.92919731140137,42.18795013427734,-3.784447908401489,1,11212.42841066667,stationary,1,2016-03-02 02:47:59.010,2016-03-02 02:47:07.556,27,16.04511,0,1,2016-03-02 02:47:55.810,11212.30655366667,0,-0.07943726,97.39182,192.168.1.101,100.78.239.175,2,1,0.36,0
2016-03-02 02:47:59.073,10,234B9614-18C8-49ED-8B56-CAB6C4F40872,my_iOS_device_1,1456908478.999997,40.79922545239403,-96.68578541846637,367.1886,0.21,268.2421875,4,5,-9999,1456908479.020525,16.0500659942627,42.65875244140625,-4.266357421875,112.6621856689453,109.3850479125977,26,11212.49941066667,0.0645294189453125,1.005584716796875,0.043914794921875,11212.48269566667,-0.116826219119051,0.07964369661158267,-0.01026329020894737,11212.44769766667,0.527898853262496,2.143528283150101,-1.48470000284447,-0.07252978533506393,0.03731323033571243,-0.003757154801860452,-0.00833369605243206,0.00980751495808363,-0.01345847547054291,XArbitraryCorrectedZVertical,0.4811264087809491,-0.540201500723983,0.4810149712130005,-0.4953022459650867,0.07226802408695221,0.9962959885597229,0.04660056531429291,14.93713855743408,42.19600296020508,-3.661352396011353,1,11212.42841066667,stationary,1,2016-03-02 02:47:59.010,2016-03-02 02:47:07.556,27,16.04511,0,1,2016-03-02 02:47:55.810,11212.30655366667,0,-0.07943726,97.39182,192.168.1.101,100.78.239.175,2,1,0.36,0
2016-03-02 02:47:59.104,11,234B9614-18C8-49ED-8B56-CAB6C4F40872,my_iOS_device_1,1456908478.999997,40.79922545239403,-96.68578541846637,367.1886,0.21,268.2421875,4,5,-9999,1456908479.079893,15.91130828857422,42.589111328125,-4.068115234375,112.6906890869141,109.4135513305664,26,11212.52970966667,0.050048828125,1.008743286132812,0.0467071533203125,11212.51771566667,-0.1401038449429976,0.1263981527090138,-0.01701972989447839,11212.48269566667,0.5521547084084862,2.16912613311248,-1.484114258351548,-0.0980435311794281,0.05005498230457306,-0.004136549308896065,-0.002686128718778491,0.01054469961673021,-0.01488918904215097,XArbitraryCorrectedZVertical,0.4814741373041429,-0.5408923232342894,0.4809661647078172,-0.4942567128322045,0.07153378427028656,0.9962454438209534,0.0487636998295784,14.90408420562744,42.22119903564453,-3.502143144607544,1,11212.42841066667,stationary,1,2016-03-02 02:47:59.010,2016-03-02 02:47:07.556,27,16.04511,0,1,2016-03-02 02:47:55.810,11212.30655366667,0,-0.07943726,97.39182,192.168.1.101,100.78.239.175,2,1,0.36,0
2016-03-02 02:47:59.146,12,234B9614-18C8-49ED-8B56-CAB6C4F40872,my_iOS_device_1,1456908478.999997,40.79922545239403,-96.68578541846637,367.1886,0.21,268.2421875,4,5,-9999,1456908479.144149,16.22351455688477,42.83274841308594,-3.70465087890625,112.7226943969727,109.445556640625,26,11212.56000566667,0.049407958984375,1.008010864257812,0.063140869140625,11212.55271066667,-0.1411387493426024,0.1646797617983578,-0.01705435098864943,11212.51771566667,0.5892314111282515,2.208756413006086,-1.482706710883822,-0.1213193833827972,0.09680955857038498,-0.01089506037533283,-0.01375670731067657,0.01152203511446714,-0.01028039399534464,XArbitraryCorrectedZVertical,0.4818750121582872,-0.5422119497993624,0.4808600269942414,-0.4925203636311101,0.07067199051380157,0.9961225986480713,0.05239465087652206,14.88045978546143,42.24484634399414,-3.312283992767334,1,11212.42841066667,stationary,1,2016-03-02 02:47:59.010,2016-03-02 02:47:07.556,27,16.04511,0,1,2016-03-02 02:47:55.810,11212.30655366667,0,-0.07943726,97.39182,192.168.1.101,100.78.239.175,2,1,0.36,0
2016-03-02 02:47:59.164,13,234B9614-18C8-49ED-8B56-CAB6C4F40872,my_iOS_device_1,1456908478.999997,40.79922545239403,-96.68578541846637,367.1886,0.21,268.2421875,4,5,-9999,1456908479.144149,16.22351455688477,42.83274841308594,-3.70465087890625,112.7226943969727,109.445556640625,26,11212.59030466667,0.06878662109375,1.01544189453125,0.0736846923828125,11212.55271066667,-0.1411387493426024,0.1646797617983578,-0.01705435098864943,11212.55271066667,0.6384125730662724,2.262045497980338,-1.481593157143285,-0.1223530843853951,0.1350913047790527,-0.01093658059835434,-0.0238662101328373,0.01540479809045792,0.0007492507575079799,XArbitraryCorrectedZVertical,0.4823419828074268,-0.5438216923004693,0.4812241825381235,-0.4899259788430981,0.068635493516922,0.9960240125656128,0.05679164454340935,14.85022926330566,42.26495361328125,-3.189178943634033,1,11212.42841066667,stationary,1,2016-03-02 02:47:59.010,2016-03-02 02:47:07.556,27,16.04511,0,1,2016-03-02 02:47:55.810,11212.30655366667,0,-0.07943726,97.39182,192.168.1.101,100.78.239.175,2,1,0.36,0
2016-03-02 02:47:59.196,14,234B9614-18C8-49ED-8B56-CAB6C4F40872,my_iOS_device_1,1456908478.999997,40.79922545239403,-96.68578541846637,367.1886,0.21,268.2421875,4,5,-9999,1456908479.144149,16.22351455688477,42.83274841308594,-3.70465087890625,112.7226943969727,109.445556640625,26,11212.62060566667,0.095306396484375,1.019622802734375,0.0781707763671875,11212.58773766667,-0.1514867280742143,0.1784403151507972,-0.03746082284138159,11212.58773766667,0.6882501019124396,2.316868726901094,-1.479519399295667,-0.1327028572559357,0.1488519757986069,-0.03134623542428017,-0.003933585248887539,0.02065759897232056,0.006001985166221857,XArbitraryCorrectedZVertical,0.482632511174661,-0.5458941413450991,0.4815241637219062,-0.487031749842098,0.06693712621927261,0.9958371520042419,0.06186910718679428,14.81689357757568,42.28751373291016,-3.04172158241272,1,11212.42841066667,stationary,1,2016-03-02 02:47:59.010,2016-03-02 02:47:07.556,27,16.04511,0,1,2016-03-02 02:47:55.810,11212.30655366667,0,-0.07943726,97.39182,192.168.1.101,100.78.239.175,2,1,0.36,0
2016-03-02 02:47:59.227,15,234B9614-18C8-49ED-8B56-CAB6C4F40872,my_iOS_device_1,1456908478.999997,40.79922545239403,-96.68578541846637,367.1886,0.21,268.2421875,4,5,-9999,1456908479.205843,16.88261795043945,43.14599609375,-3.3411865234375,113.8658676147461,110.5887298583984,26,11212.65090866667,0.0960235595703125,1.012863159179688,0.089874267578125,11212.62276366667,-0.1100111898895382,0.1295492049107955,-0.03896497622505835,11212.62276366667,0.7255976166259733,2.358445780522168,-1.476465829428429,-0.09123044461011887,0.09996099025011063,-0.03284591436386108,0.0288536511361599,0.02406862564384937,0.01141814608126879,XArbitraryCorrectedZVertical,0.4827512054671018,-0.5480215222468576,0.4813721171621848,-0.484669546797705,0.0664527490735054,0.9955541491508484,0.06675262749195099,14.76847171783447,42.32648086547852,-2.718025922775269,1,11212.42841066667,stationary,1,2016-03-02 02:47:59.010,2016-03-02 02:47:07.556,27,16.04511,0,1,2016-03-02 02:47:55.810,11212.30655366667,0,-0.07943726,97.39182,192.168.1.101,100.78.239.175,2,1,0.36,0
2016-03-02 02:47:59.257,16,234B9614-18C8-49ED-8B56-CAB6C4F40872,my_iOS_device_1,1456908478.999997,40.79922545239403,-96.68578541846637,367.1886,0.21,268.2421875,4,5,-9999,1456908479.205843,16.88261795043945,43.14599609375,-3.3411865234375,113.8658676147461,110.5887298583984,26,11212.68120566667,0.095001220703125,1.012619018554688,0.08575439453125,11212.65777466667,-0.09855080877060023,0.06366526270332526,-0.02491014357216516,11212.65777466667,0.7524281157703799,2.387391139332719,-1.474500527834118,-0.07977113872766495,0.03407718613743782,-0.01878879219293594,0.03019101172685623,0.01749601773917675,0.01980052143335342,XArbitraryCorrectedZVertical,0.4831130302318427,-0.5492164169713052,0.4811513367162607,-0.4831733835028206,0.06583254784345627,0.995367169380188,0.07007374614477158,14.76812171936035,42.33603668212891,-2.566864490509033,1,11212.42841066667,stationary,1,2016-03-02 02:47:59.010,2016-03-02 02:47:07.556,27,16.04511,0,1,2016-03-02 02:47:55.810,11212.30655366667,0,-0.07943726,97.39182,192.168.1.101,100.78.239.175,2,1,0.36,0
2016-03-02 02:47:59.307,17,234B9614-18C8-49ED-8B56-CAB6C4F40872,my_iOS_device_1,1456908478.999997,40.79922545239403,-96.68578541846637,367.1886,0.21,268.2421875,4,5,-9999,1456908479.265214,17.12544441223145,43.04158020019531,-3.50640869140625,114.8404006958008,111.5632629394531,26,11212.71148766667,0.0804901123046875,1.015396118164062,0.069305419921875,11212.69279066667,-0.05001682843277817,0.006348709722639896,0.001401887997817711,11212.65777466667,0.7524281157703799,2.387391139332719,-1.474500527834118,-0.07977113872766495,0.03407718613743782,-0.01878879219293594,0.03019101172685623,0.01749601773917675,0.01980052143335342,XArbitraryCorrectedZVertical,0.4831130302318427,-0.5492164169713052,0.4811513367162607,-0.4831733835028206,0.06583254784345627,0.995367169380188,0.07007374614477158,14.76812171936035,42.33603668212891,-2.566864490509033,1,11212.42841066667,stationary,1,2016-03-02 02:47:59.010,2016-03-02 02:47:07.556,27,16.04511,0,1,2016-03-02 02:47:55.810,11212.30655366667,0,-0.07943726,97.39182,192.168.1.101,100.78.239.175,2,1,0.36,0
2016-03-02 02:47:59.326,18,234B9614-18C8-49ED-8B56-CAB6C4F40872,my_iOS_device_1,1456908478.999997,40.79922545239403,-96.68578541846637,367.1886,0.21,268.2421875,4,5,-9999,1456908479.313978,17.33358383178711,42.97198486328125,-3.241943359375,115.1010971069336,111.8239593505859,26,11212.74179466667,0.0688323974609375,1.019134521484375,0.07574462890625,11212.72780266667,-0.0255937770239885,-0.00957805886046998,0.003896204674785925,11212.69279066667,0.7641886339078275,2.398993843426931,-1.472630838331239,-0.0312388613820076,-0.02323917113244534,0.007525823079049587,0.0276291761547327,0.01798269897699356,0.005173552315682173,XArbitraryCorrectedZVertical,0.4835363790637373,-0.5498131078664287,0.4804315355088393,-0.482787382010764,0.06627341359853745,0.9951856136322021,0.07220377027988434,14.77822685241699,42.34904861450195,-2.277767658233643,1,11212.75110366667,unknown,1,2016-03-02 02:47:59.334,2016-03-02 02:47:07.556,27,16.04511,0,1,2016-03-02 02:47:55.810,11212.30655366667,0,-0.07943726,97.39182,192.168.1.101,100.78.239.175,2,1,0.36,0
2016-03-02 02:47:59.346,19,234B9614-18C8-49ED-8B56-CAB6C4F40872,my_iOS_device_1,1456908478.999997,40.79922545239403,-96.68578541846637,367.1886,0.21,268.2421875,4,5,-9999,1456908479.313978,17.33358383178711,42.97198486328125,-3.241943359375,115.1010971069336,111.8239593505859,26,11212.77209966667,0.0502166748046875,1.011062622070312,0.0604400634765625,11212.76280666667,0.009625729443982399,0.01169580455930099,-0.003063434201918148,11212.72780266667,0.7618543296290836,2.395374682493675,-1.471727723806602,-0.006815016735345125,-0.03916586935520172,0.01002214848995209,0.01200292911380529,0.0242361668497324,-0.003058521542698145,XArbitraryCorrectedZVertical,0.4837556612073996,-0.5498109953883623,0.4797896981212095,-0.4832082109987455,0.06714440882205963,0.995096743106842,0.07262334227561951,14.77961921691895,42.35021591186523,-2.246771574020386,1,11212.75110366667,unknown,1,2016-03-02 02:47:59.334,2016-03-02 02:47:07.556,27,16.04511,0,1,2016-03-02 02:47:55.810,11212.30655366667,0,-0.07943726,97.39182,192.168.1.101,100.78.239.175,2,1,0.36,0
2016-03-02 02:47:59.385,20,234B9614-18C8-49ED-8B56-CAB6C4F40872,my_iOS_device_1,1456908478.999997,40.79922545239403,-96.68578541846637,367.1886,0.21,268.2421875,4,5,-9999,1456908479.372777,17.43765068054199,43.28523254394531,-3.5394287109375,114.9235076904297,111.646369934082,26,11212.80239566667,0.0646514892578125,1.00958251953125,0.0661163330078125,11212.76280666667,0.009625729443982399,0.01169580455930099,-0.003063434201918148,11212.76280666667,0.756373525739261,2.388913966827945,-1.472355297195274,0.02840499393641949,-0.01789174415171146,0.003060928080230951,-0.01507652271538973,0.0182996578514576,-0.006333047989755869,XArbitraryCorrectedZVertical,0.4838058805290533,-0.5493614283515384,0.4797813303119879,-0.4836773367536705,0.06718529015779495,0.9951586127281189,0.07173221558332443,14.81634998321533,42.33729934692383,-2.248319149017334,1,11212.75110366667,unknown,1,2016-03-02 02:47:59.334,2016-03-02 02:47:07.556,27,16.04511,0,1,2016-03-02 02:47:55.810,11212.30655366667,0,-0.07943726,97.39182,192.168.1.101,100.78.239.175,2,1,0.36,0
2016-03-02 02:47:59.407,21,234B9614-18C8-49ED-8B56-CAB6C4F40872,my_iOS_device_1,1456908478.999997,40.79922545239403,-96.68578541846637,367.1886,0.21,268.2421875,4,5,-9999,1456908479.372777,17.43765068054199,43.28523254394531,-3.5394287109375,114.9235076904297,111.646369934082,26,11212.83269766667,0.0790863037109375,1.009368896484375,0.0622100830078125,11212.79782866667,-7.776430383031376e-05,0.03298591326172144,0.007442203666226431,11212.79782866667,0.7509420876778464,2.383369564104639,-1.47365498017428,0.01870442926883698,0.003398564411327243,0.01356256939470768,-0.006817042361944914,0.01365616172552109,-0.009201215580105782,XArbitraryCorrectedZVertical,0.4836610737759577,-0.5488913410350174,0.4802294955270339,-0.4839110383908579,0.0666925311088562,0.9952855110168457,0.07041947543621063,14.81755638122559,42.33554077148438,-2.273327350616455,1,11212.75110366667,unknown,1,2016-03-02 02:47:59.334,2016-03-02 02:47:07.556,27,16.04511,0,1,2016-03-02 02:47:55.810,11212.30655366667,0,-0.07943726,97.39182,192.168.1.101,100.78.239.175,2,1,0.36,0
2016-03-02 02:47:59.466,22,234B9614-18C8-49ED-8B56-CAB6C4F40872,my_iOS_device_1,1456908478.999997,40.79922545239403,-96.68578541846637,367.1886,0.21,268.2421875,4,5,-9999,1456908479.431469,17.3682746887207,42.93716430664062,-3.3411865234375,114.8498001098633,111.5726623535156,26,11212.86299766667,0.0758514404296875,1.005996704101562,0.0698394775390625,11212.83281966667,-0.006179865309528872,0.03505225995151393,-0.01289662389481772,11212.83281966667,0.7397810356203774,2.372310124802627,-1.473897342145815,0.01260354183614254,0.005465048830956221,-0.006773774512112141,0.01178686693310738,0.01405993103981018,-0.007294224109500647,XArbitraryCorrectedZVertical,0.4832576292264564,-0.548829861979392,0.4803461868320223,-0.4842678878369308,0.06729944050312042,0.9953089952468872,0.06950430572032928,14.79474830627441,42.3382453918457,-2.369486808776855,1,11212.75110366667,unknown,1,2016-03-02 02:47:59.334,2016-03-02 02:47:07.556,27,16.04511,0,1,2016-03-02 02:47:55.810,11212.30655366667,0,-0.07943726,97.39182,192.168.1.101,100.78.239.175,2,1,0.36,0
2016-03-02 02:47:59.478,23,234B9614-18C8-49ED-8B56-CAB6C4F40872,my_iOS_device_1,1456908478.999997,40.79922545239403,-96.68578541846637,367.1886,0.21,268.2421875,4,5,-9999,1456908479.431469,17.3682746887207,42.93716430664062,-3.3411865234375,114.8498001098633,111.5726623535156,26,11212.89329566667,0.0878143310546875,1.01983642578125,0.0717010498046875,11212.86784866667,9.134642538971787e-05,0.04358769124521789,-0.004283960929501463,11212.86784866667,0.7324711607089696,2.365413361145793,-1.4742742418492,0.01887641102075577,0.01400058437138796,0.001840888755396008,0.008337059058248997,0.01065134536474943,0.001068665063939989,XArbitraryCorrectedZVertical,0.4829154312476155,-0.5487969501579401,0.4805883121297519,-0.4844063046705201,0.06751438230276108,0.9953453540802002,0.06877081096172333,14.81018543243408,42.33087158203125,-2.40455174446106,1,11212.75110366667,unknown,1,2016-03-02 02:47:59.334,2016-03-02 02:47:07.556,27,16.04511,0,1,2016-03-02 02:47:55.810,11212.30655366667,0,-0.07943726,97.39182,192.168.1.101,100.78.239.175,2,1,0.36,0
2016-03-02 02:47:59.498,24,234B9614-18C8-49ED-8B56-CAB6C4F40872,my_iOS_device_1,1456908478.999997,40.79922545239403,-96.68578541846637,367.1886,0.21,268.2421875,4,5,-9999,1456908479.489906,16.95199966430664,42.86753845214844,-2.8785400390625,114.8480377197266,111.5708999633789,26,11212.92359366667,0.078216552734375,1.01043701171875,0.078125,11212.90286166667,0.009691243206798348,0.04039882215595701,-0.006274407528226686,11212.86784866667,0.7324711607089696,2.365413361145793,-1.4742742418492,0.01887641102075577,0.01400058437138796,0.001840888755396008,0.008337059058248997,0.01065134536474943,0.001068665063939989,XArbitraryCorrectedZVertical,0.4829154312476155,-0.5487969501579401,0.4805883121297519,-0.4844063046705201,0.06751438230276108,0.9953453540802002,0.06877081096172333,14.81018543243408,42.33087158203125,-2.40455174446106,1,11212.75110366667,unknown,1,2016-03-02 02:47:59.334,2016-03-02 02:47:07.556,27,16.04511,0,1,2016-03-02 02:47:55.810,11212.30655366667,0,-0.07943726,97.39182,192.168.1.101,100.78.239.175,2,1,0.36,0
2016-03-02 02:47:59.545,25,234B9614-18C8-49ED-8B56-CAB6C4F40872,my_iOS_device_1,1456908478.999997,40.79922545239403,-96.68578541846637,367.1886,0.21,268.2421875,4,5,-9999,1456908479.489906,16.95199966430664,42.86753845214844,-2.8785400390625,114.8480377197266,111.5708999633789,26,11212.95389466667,0.082244873046875,1.005279541015625,0.0730438232421875,11212.93787866667,0.009686449516836206,0.03401842081634517,-0.00627121173491859,11212.90286166667,0.720266806169836,2.353658159827412,-1.474193331836864,0.02847614884376526,0.01081183180212975,-0.0001457579783163965,0.01943912915885448,0.02449886687099934,0.003671814687550068,XArbitraryCorrectedZVertical,0.4823894204772835,-0.5489217289518584,0.4806787326109436,-0.4846992247895897,0.06837520003318787,0.9953375458717346,0.06802923232316971,14.84488105773926,42.31696319580078,-2.435214042663574,1,11212.75110366667,unknown,1,2016-03-02 02:47:59.334,2016-03-02 02:47:07.556,27,16.04511,0,1,2016-03-02 02:47:55.810,11212.30655366667,0,-0.07943726,97.39182,192.168.1.101,100.78.239.175,2,1,0.36,0
2016-03-02 02:47:59.561,26,234B9614-18C8-49ED-8B56-CAB6C4F40872,my_iOS_device_1,1456908478.999997,40.79922545239403,-96.68578541846637,367.1886,0.21,268.2421875,4,5,-9999,1456908479.54879,16.98669052124023,42.76312255859375,-3.17596435546875,114.8488845825195,111.5717468261719,26,11212.98419266667,0.078125,1.0072021484375,0.0789337158203125,11212.97288966667,-0.003185673295952785,0.02658553821393401,0.001005875943722928,11212.93787866667,0.7093147041750887,2.342977372666245,-1.473958733057637,0.02846910618245602,0.004431743174791336,-0.0001384245260851458,0.004282189998775721,0.01072757691144943,0.007279566954821348,XArbitraryCorrectedZVertical,0.4819441384440115,-0.5490526736327719,0.4806731253899292,-0.4849993355913396,0.06926517188549042,0.99531489610672,0.06745798140764236,14.87962532043457,42.30369186401367,-2.453677892684937,1,11212.75110366667,unknown,1,2016-03-02 02:47:59.334,2016-03-02 02:47:07.556,27,16.04511,0,1,2016-03-02 02:47:55.810,11212.30655366667,0,-0.07943726,97.39182,192.168.1.101,100.78.239.175,2,1,0.36,0
2016-03-02 02:47:59.589,27,234B9614-18C8-49ED-8B56-CAB6C4F40872,my_iOS_device_1,1456908478.999997,40.79922545239403,-96.68578541846637,367.1886,0.21,268.2421875,4,5,-9999,1456908479.54879,16.98669052124023,42.76312255859375,-3.17596435546875,114.8488845825195,111.5717468261719,26,11213.01449166667,0.0792694091796875,1.015350341796875,0.0873260498046875,11212.97288966667,-0.003185673295952785,0.02658553821393401,0.001005875943722928,11212.97288966667,0.7008592677741422,2.334406088797354,-1.47379678183702,0.01559534855186939,-0.00300091621465981,0.007141291629523039,0.0109600992873311,0.01146041229367256,0.009915749542415142,XArbitraryCorrectedZVertical,0.481678011615568,-0.5490655130394002,0.4806002316765651,-0.4853213088555711,0.06995725631713867,0.995299220085144,0.06697329133749008,14.89668083190918,42.29705810546875,-2.464548587799072,1,11212.75110366667,unknown,1,2016-03-02 02:47:59.334,2016-03-02 02:47:07.556,27,16.04511,0,1,2016-03-02 02:47:55.810,11212.30655366667,0,-0.07943726,97.39182,192.168.1.101,100.78.239.175,2,1,0.36,0
2016-03-02 02:47:59.627,28,234B9614-18C8-49ED-8B56-CAB6C4F40872,my_iOS_device_1,1456908478.999997,40.79922545239403,-96.68578541846637,367.1886,0.21,268.2421875,4,5,-9999,1456908479.609734,16.95199966430664,42.72833251953125,-3.473388671875,114.8492965698242,111.5721588134766,26,11213.04477366667,0.077911376953125,1.008453369140625,0.0796966552734375,11213.00790466667,-0.01806555325455251,0.02231782256708203,-0.0002737729600601457,11213.00790466667,0.7003305052301459,2.333731714716589,-1.472901409060936,0.0007108496502041817,-0.007268086075782776,0.005864356178790331,0.00869918055832386,0.01472135353833437,0.01555746048688889,XArbitraryCorrectedZVertical,0.4816673529684914,-0.5493336995737896,0.4802391632810557,-0.4853858193726008,0.07064652442932129,0.9952121376991272,0.06754190474748611,14.92794799804688,42.28467178344727,-2.487817764282227,1,11212.75110366667,unknown,1,2016-03-02 02:47:59.334,2016-03-02 02:47:07.556,27,16.04511,0,1,2016-03-02 02:47:55.810,11212.30655366667,0,-0.07943726,97.39182,192.168.1.101,100.78.239.175,2,1,0.36,0
2016-03-02 02:47:59.649,29,234B9614-18C8-49ED-8B56-CAB6C4F40872,my_iOS_device_1,1456908478.999997,40.79922545239403,-96.68578541846637,367.1886,0.21,268.2421875,4,5,-9999,1456908479.609734,16.95199966430664,42.72833251953125,-3.473388671875,114.8492965698242,111.5721588134766,26,11213.07507166667,0.0796661376953125,0.999603271484375,0.0646820068359375,11213.04291166667,0.004349474692317412,0.02870035443556593,-0.005280249493300106,11213.04291166667,0.6995149997113633,2.332827209078296,-1.472316820404667,0.02317169681191444,-0.0008490242762491107,0.0008627203642390668,0.007912066765129566,0.01795248873531818,0.01200013235211372,XArbitraryCorrectedZVertical,0.4816423350931037,-0.5495093040878903,0.4800057385200474,-0.4854427636238166,0.07112845778465271,0.9951547980308533,0.06787963211536407,14.97101020812988,42.27162933349609,-2.450371980667114,1,11212.75110366667,unknown,1,2016-03-02 02:47:59.334,2016-03-02 02:47:07.556,27,16.04511,0,1,2016-03-02 02:47:55.810,11212.30655366667,0,-0.07943726,97.39182,192.168.1.101,100.78.239.175,2,1,0.36,0
2016-03-02 02:47:59.707,30,234B9614-18C8-49ED-8B56-CAB6C4F40872,my_iOS_device_1,1456908478.999997,40.79922545239403,-96.68578541846637,367.1886,0.21,268.2421875,4,5,-9999,1456908479.666362,16.74386405944824,42.79792785644531,-3.2750244140625,114.8483963012695,111.5712585449219,26,11213.10538666667,0.0833740234375,1.003707885742188,0.0742034912109375,11213.07790166667,-0.00634178550380569,0.03402108397743524,-0.001175252989051968,11213.07790166667,0.6913708968245567,2.324773854590731,-1.472272820185132,0.01247935369610786,0.004471874795854092,0.004969789180904627,0.007961411029100418,0.004452787339687347,-0.002652578055858612,XArbitraryCorrectedZVertical,0.4813360997520562,-0.5495296638772836,0.4800281419312041,-0.4857012358935004,0.07170472294092178,0.9951505064964294,0.06733458489179611,14.98188304901123,42.26754379272461,-2.454368591308594,1,11212.75110366667,unknown,1,2016-03-02 02:47:59.334,2016-03-02 02:47:07.556,27,16.04511,0,1,2016-03-02 02:47:55.810,11212.30655366667,0,-0.07943726,97.39182,192.168.1.101,100.78.239.175,2,1,0.36,0
2016-03-02 02:47:59.712,31,234B9614-18C8-49ED-8B56-CAB6C4F40872,my_iOS_device_1,1456908478.999997,40.79922545239403,-96.68578541846637,367.1886,0.21,268.2421875,4,5,-9999,1456908479.666362,16.74386405944824,42.79792785644531,-3.2750244140625,114.8483963012695,111.5712585449219,26,11213.13566966667,0.0866241455078125,1.01507568359375,0.077728271484375,11213.11294466667,-0.04347717005997959,0.02121181176637213,-0.009168198368706786,11213.11294466667,0.6908355401996734,2.324053695473066,-1.471454249761529,-0.02465705387294292,-0.00833733007311821,-0.003020405536517501,0.01102662552148104,0.008638253435492516,0.006363383494317532,XArbitraryCorrectedZVertical,0.4813337513177968,-0.5497616518203768,0.4796859348538476,-0.485779116403184,0.07234739512205124,0.9950696229934692,0.06784010678529739,15.01162147521973,42.25571441650391,-2.476278066635132,1,11212.75110366667,unknown,1,2016-03-02 02:47:59.334,2016-03-02 02:47:07.556,27,16.04511,0,1,2016-03-02 02:47:55.810,11212.30655366667,0,-0.07943726,97.39182,192.168.1.101,100.78.239.175,2,1,0.36,0
2016-03-02 02:47:59.742,32,234B9614-18C8-49ED-8B56-CAB6C4F40872,my_iOS_device_1,1456908478.999997,40.79922545239403,-96.68578541846637,367.1886,0.21,268.2421875,4,5,-9999,1456908479.725571,16.36227798461914,42.97198486328125,-3.043701171875,114.8466339111328,111.5694961547852,26,11213.16596266667,0.0851898193359375,1.003707885742188,0.0707855224609375,11213.14795566667,-0.04134397802682613,0.009513077729872046,-0.01019697749780439,11213.14795566667,0.6969461543915412,2.32957338630015,-1.47005377062321,-0.02252585254609585,-0.02003589831292629,-0.004045477602630854,0.008224219083786011,0.02167180366814137,0.01001120638102293,XArbitraryCorrectedZVertical,0.481644204125213,-0.5501067573402509,0.4790189619055613,-0.4857388704809437,0.07298305630683899,0.9949297308921814,0.06919717043638229,15.0274543762207,42.25130081176758,-2.455507755279541,1,11212.75110366667,unknown,1,2016-03-02 02:47:59.334,2016-03-02 02:47:07.556,27,16.04511,0,1,2016-03-02 02:47:55.810,11212.30655366667,0,-0.07943726,97.39182,192.168.1.101,100.78.239.175,2,1,0.36,0
2016-03-02 02:47:59.788,33,234B9614-18C8-49ED-8B56-CAB6C4F40872,my_iOS_device_1,1456908478.999997,40.79922545239403,-96.68578541846637,367.1886,0.21,268.2421875,4,5,-9999,1456908479.76018,16.22351837158203,43.25042724609375,-2.97760009765625,114.8454132080078,111.5682754516602,26,11213.19626666667,0.0736541748046875,1.00860595703125,0.0672149658203125,11213.18296666667,-0.03395929864014541,0.006340187607151642,-0.005825132252330317,11213.14795566667,0.6969461543915412,2.32957338630015,-1.47005377062321,-0.02252585254609585,-0.02003589831292629,-0.004045477602630854,0.008224219083786011,0.02167180366814137,0.01001120638102293,XArbitraryCorrectedZVertical,0.481644204125213,-0.5501067573402509,0.4790189619055613,-0.4857388704809437,0.07298305630683899,0.9949297308921814,0.06919717043638229,15.0274543762207,42.25130081176758,-2.455507755279541,1,11212.75110366667,unknown,1,2016-03-02 02:47:59.334,2016-03-02 02:47:07.556,27,16.04511,0,1,2016-03-02 02:47:55.810,11212.30655366667,0,-0.07943726,97.39182,192.168.1.101,100.78.239.175,2,1,0.36,0
2016-03-02 02:47:59.802,34,234B9614-18C8-49ED-8B56-CAB6C4F40872,my_iOS_device_1,1456908478.999997,40.79922545239403,-96.68578541846637,367.1886,0.21,268.2421875,4,5,-9999,1456908479.76018,16.22351837158203,43.25042724609375,-2.97760009765625,114.8454132080078,111.5682754516602,26,11213.22656466667,0.0749359130859375,1.008193969726562,0.062896728515625,11213.21798266667,-0.04026406620479899,0.01163774764753726,-0.01124812718005867,11213.18296666667,0.6981687024398043,2.329994485481122,-1.469275001218296,-0.0151416165754199,-0.02320879884064198,0.0003289312880951911,0.009583430364727974,0.009329773485660553,0.0007191328913904727,XArbitraryCorrectedZVertical,0.4818544515821674,-0.5501789657852832,0.4785387442704743,-0.4859218695736212,0.07351593673229218,0.9948511123657227,0.06976121664047241,15.05060577392578,42.24613952636719,-2.401925563812256,1,11212.75110366667,unknown,1,2016-03-02 02:47:59.334,2016-03-02 02:47:07.556,27,16.04511,0,1,2016-03-02 02:47:55.810,11212.30655366667,0,-0.07943726,97.39182,192.168.1.101,100.78.239.175,2,1,0.36,0
2016-03-02 02:47:59.833,35,234B9614-18C8-49ED-8B56-CAB6C4F40872,my_iOS_device_1,1456908478.999997,40.79922545239403,-96.68578541846637,367.1886,0.21,268.2421875,4,5,-9999,1456908479.814935,16.53572273254395,43.3548583984375,-2.7462158203125,114.8411483764648,111.5640106201172,26,11213.25686566667,0.0786895751953125,1.014663696289062,0.07513427734375,11213.25299366667,-0.03924354287508063,0.01271073525073019,-0.008036621221532116,11213.21798266667,0.7028350386860368,2.334048760978867,-1.469162975321945,-0.02144491858780384,-0.01791117526590824,-0.005094787105917931,-0.003610883606597781,0.01344574708491564,-0.007559441030025482,XArbitraryCorrectedZVertical,0.4821645956341616,-0.5500774220504822,0.4783411426968501,-0.4859237426497231,0.07331303507089615,0.9948397874832153,0.07013573497533798,15.0626859664917,42.24317169189453,-2.378313541412354,1,11212.75110366667,unknown,1,2016-03-02 02:47:59.334,2016-03-02 02:47:07.556,27,16.04511,0,1,2016-03-02 02:47:55.810,11212.30655366667,0,-0.07943726,97.39182,192.168.1.101,100.78.239.175,2,1,0.36,0
2016-03-02 02:47:59.866,36,234B9614-18C8-49ED-8B56-CAB6C4F40872,my_iOS_device_1,1456908478.999997,40.79922545239403,-96.68578541846637,367.1886,0.21,268.2421875,4,5,-9999,1456908479.814935,16.53572273254395,43.3548583984375,-2.7462158203125,114.8411483764648,111.5640106201172,26,11213.28716766667,0.076263427734375,1.009490966796875,0.0748748779296875,11213.25299366667,-0.03924354287508063,0.01271073525073019,-0.008036621221532116,11213.25299366667,0.7067923929935054,2.337278201068414,-1.468631198360035,-0.02042325213551521,-0.01683826372027397,-0.001882245182059705,0.007862113416194916,0.01920662820339203,0.001373978098854423,XArbitraryCorrectedZVertical,0.4824648964334921,-0.5500883139953363,0.4779639009163307,-0.4859845470136204,0.07346723228693008,0.9947856664657593,0.07073906064033508,15.05476570129395,42.2462272644043,-2.374172449111938,1,11212.75110366667,unknown,1,2016-03-02 02:47:59.334,2016-03-02 02:47:07.556,27,16.04511,0,1,2016-03-02 02:47:55.810,11212.30655366667,0,-0.07943726,97.39182,192.168.1.101,100.78.239.175,2,1,0.36,0
2016-03-02 02:47:59.891,37,234B9614-18C8-49ED-8B56-CAB6C4F40872,my_iOS_device_1,1456908478.999997,40.79922545239403,-96.68578541846637,367.1886,0.21,268.2421875,4,5,-9999,1456908479.872518,16.88261795043945,43.28526306152344,-2.9444580078125,114.8353042602539,111.5581665039062,26,11213.31746666667,0.07330322265625,1.009597778320312,0.062469482421875,11213.28800466667,-0.03715029825827835,0.006337790762170571,-0.005871471255297697,11213.28800466667,0.7103357328522245,2.340014968144665,-1.468038180029622,-0.0183308981359005,-0.02321094088256359,0.0002837998326867819,0.002566244453191757,0.01476594060659409,0.003524696687236428,XArbitraryCorrectedZVertical,0.4827684882259574,-0.5500996977350953,0.4775462469541745,-0.4860807457077116,0.07369717955589294,0.9947250485420227,0.07135017961263657,15.06453227996826,42.24378967285156,-2.355442047119141,1,11212.75110366667,unknown,1,2016-03-02 02:47:59.334,2016-03-02 02:47:07.556,27,16.04511,0,1,2016-03-02 02:47:55.810,11212.30655366667,0,-0.07943726,97.39182,192.168.1.101,100.78.239.175,2,1,0.36,0
2016-03-02 02:47:59.946,38,234B9614-18C8-49ED-8B56-CAB6C4F40872,my_iOS_device_1,1456908478.999997,40.79922545239403,-96.68578541846637,367.1886,0.21,268.2421875,4,5,-9999,1456908479.934214,16.91731071472168,43.73774719238281,-3.24188232421875,114.8276138305664,111.5504760742188,26,11213.34778166667,0.07464599609375,1.010971069335938,0.0747833251953125,11213.32300266667,-0.04133012958915772,0.00844674802940432,-0.01126197561772708,11213.32300266667,0.715576872811001,2.344485086240794,-1.467806148666673,-0.02250971458852291,-0.02110192365944386,-0.005107167642563581,-0.0002393848553765565,0.0148965809494257,-0.009370701387524605,XArbitraryCorrectedZVertical,0.4831364683574981,-0.5499993135241877,0.4772669171902275,-0.4861030732485703,0.07354260981082916,0.9947012066841125,0.07184018194675446,15.06589317321777,42.24386978149414,-2.345279693603516,1,11212.75110366667,unknown,1,2016-03-02 02:47:59.334,2016-03-02 02:47:07.556,27,16.04511,0,1,2016-03-02 02:47:55.810,11212.30655366667,0,-0.07943726,97.39182,192.168.1.101,100.78.239.175,2,1,0.36,0
2016-03-02 02:47:59.952,39,234B9614-18C8-49ED-8B56-CAB6C4F40872,my_iOS_device_1,1456908478.999997,40.79922545239403,-96.68578541846637,367.1886,0.21,268.2421875,4,5,-9999,1456908479.934214,16.91731071472168,43.73774719238281,-3.24188232421875,114.8276138305664,111.5504760742188,26,11213.37807666667,0.0676422119140625,1.011550903320312,0.078704833984375,11213.35802666667,-0.03711381295134426,0.01590253381719016,-0.008007326449541245,11213.32300266667,0.715576872811001,2.344485086240794,-1.467806148666673,-0.02250971458852291,-0.02110192365944386,-0.005107167642563581,-0.0002393848553765565,0.0148965809494257,-0.009370701387524605,XArbitraryCorrectedZVertical,0.4831364683574981,-0.5499993135241877,0.4772669171902275,-0.4861030732485703,0.07354260981082916,0.9947012066841125,0.07184018194675446,15.06589317321777,42.24386978149414,-2.345279693603516,1,11212.75110366667,unknown,1,2016-03-02 02:47:59.334,2016-03-02 02:47:07.556,27,16.04511,0,1,2016-03-02 02:47:55.810,11212.30655366667,0,-0.07943726,97.39182,192.168.1.101,100.78.239.175,2,1,0.36,0
2016-03-02 02:47:59.983,40,234B9614-18C8-49ED-8B56-CAB6C4F40872,my_iOS_device_1,1456908478.999997,40.79922545239403,-96.68578541846637,367.1886,0.21,268.2421875,4,5,-9999,1456908479.934214,16.91731071472168,43.73774719238281,-3.24188232421875,114.8276138305664,111.5504760742188,26,11213.40836066667,0.0701904296875,1.013458251953125,0.0727386474609375,11213.39302566667,-0.03603470007764416,0.01696380351158673,-0.009057943499577505,11213.39302566667,0.7296419606422013,2.357534787760668,-1.467201549999319,-0.0172150693833828,-0.01258421596139669,-0.002905382076278329,-0.005854356568306684,0.01929241605103016,0.004234057851135731,XArbitraryCorrectedZVertical,0.4838769416423827,-0.5499753477341618,0.4767826295504997,-0.4858688571933941,0.07302354276180267,0.9946388602256775,0.07321955263614655,15.05176162719727,42.24979019165039,-2.329366445541382,1,11212.75110366667,unknown,1,2016-03-02 02:47:59.334,2016-03-02 02:47:07.556,27,16.04511,0,1,2016-03-02 02:47:55.810,11212.30655366667,0,-0.07943726,97.39182,192.168.1.101,100.78.239.175,2,1,0.36,0
2016-03-02 02:48:00.029,41,234B9614-18C8-49ED-8B56-CAB6C4F40872,my_iOS_device_1,1456908478.999997,40.79922545239403,-96.68578541846637,367.1886,0.21,268.2421875,4,5,-9999,1456908479.990411,16.57041549682617,43.45930480957031,-3.50628662109375,114.8181991577148,111.5410614013672,26,11213.43867266667,0.070068359375,1.00384521484375,0.0706939697265625,11213.42805866667,-0.0338887248712583,0.02227947304738489,-0.01009524474416337,11213.39302566667,0.7296419606422013,2.357534787760668,-1.467201549999319,-0.0172150693833828,-0.01258421596139669,-0.002905382076278329,-0.005854356568306684,0.01929241605103016,0.004234057851135731,XArbitraryCorrectedZVertical,0.4838769416423827,-0.5499753477341618,0.4767826295504997,-0.4858688571933941,0.07302354276180267,0.9946388602256775,0.07321955263614655,15.05176162719727,42.24979019165039,-2.329366445541382,1,11212.75110366667,unknown,1,2016-03-02 02:47:59.334,2016-03-02 02:47:07.556,27,16.04511,0,1,2016-03-02 02:47:55.810,11212.30655366667,0,-0.07943726,97.39182,192.168.1.101,100.78.239.175,2,1,0.36,0
2016-03-02 02:48:00.045,42,234B9614-18C8-49ED-8B56-CAB6C4F40872,my_iOS_device_1,1456908478.999997,40.79922545239403,-96.68578541846637,367.1886,0.21,268.2421875,4,5,-9999,1456908479.990411,16.57041549682617,43.45930480957031,-3.50628662109375,114.8181991577148,111.5410614013672,26,11213.46896466667,0.0706329345703125,1.014633178710938,0.0737457275390625,11213.46306966667,-0.04452965132277891,0.03609861594380605,-0.009191101554081467,11213.42805866667,0.7348028201998363,2.362324716762154,-1.467161925859784,-0.01506917364895344,-0.007268276531249285,-0.003944005351513624,-0.0009681227966211736,0.01204858999699354,0.0008816189947538078,XArbitraryCorrectedZVertical,0.4841534309317395,-0.5499033737967851,0.4766736770228487,-0.4857817827352693,0.07269968837499619,0.994634747505188,0.0735965296626091,15.0169677734375,42.26470947265625,-2.28282904624939,1,11212.75110366667,unknown,1,2016-03-02 02:47:59.334,2016-03-02 02:47:07.556,27,16.04511,0,1,2016-03-02 02:47:55.810,11212.30655366667,0,-0.07943726,97.39182,192.168.1.101,100.78.239.175,2,1,0.36,0
2016-03-02 02:48:00.073,43,234B9614-18C8-49ED-8B56-CAB6C4F40872,my_iOS_device_1,1456908480.000045,40.79922503329887,-96.68578483173314,367.0581,0.27,250.6640625,4,8.080972824855504,-9999,1456908480.049035,15.84192943572998,43.49412536621094,-2.9444580078125,114.8081512451172,111.5310134887695,26,11213.49927166667,0.0665740966796875,1.0120849609375,0.0722808837890625,11213.49806766667,-0.03386049536370347,0.04035434736575268,-0.01116983024401034,11213.46306966667,0.741698254220166,2.369324399718949,-1.466829304010411,-0.025709493085742,0.006551089230924845,-0.003040837356820703,-0.00205532624386251,0.01569938659667969,-0.001296759350225329,XArbitraryCorrectedZVertical,0.4843750922079836,-0.5500464174302681,0.4765723199902398,-0.4854982312426651,0.0724136009812355,0.9946002960205078,0.0743405818939209,15.00486469268799,42.27056884765625,-2.253715991973877,1,11212.75110366667,unknown,1,2016-03-02 02:47:59.334,2016-03-02 02:47:07.556,27,16.04511,0,1,2016-03-02 02:47:55.810,11212.30655366667,0,-0.07943726,97.39182,192.168.1.101,100.78.239.175,2,1,0.36,0
2016-03-02 02:48:00.104,44,234B9614-18C8-49ED-8B56-CAB6C4F40872,my_iOS_device_1,1456908480.000045,40.79922503329887,-96.68578483173314,367.0581,0.27,250.6640625,4,8.080972824855504,-9999,1456908480.049035,15.84192943572998,43.49412536621094,-2.9444580078125,114.8081512451172,111.5310134887695,26,11213.52957666667,0.0725555419921875,1.009124755859375,0.079132080078125,11213.49806766667,-0.03386049536370347,0.04035434736575268,-0.01116983024401034,11213.49806766667,0.7475313966916675,2.375500085531836,-1.466745738081422,-0.01503936480730772,0.01080697402358055,-0.005020748358219862,-0.003071536775678396,0.01879033818840981,-0.004625312983989716,XArbitraryCorrectedZVertical,0.4845064346982334,-0.5501605627002039,0.4766220383766612,-0.4851889348687569,0.07201074808835983,0.9945915937423706,0.07484626024961472,14.99853706359863,42.27392959594727,-2.232733011245728,1,11212.75110366667,unknown,1,2016-03-02 02:47:59.334,2016-03-02 02:47:07.556,27,16.04511,0,1,2016-03-02 02:47:55.810,11212.30655366667,0,-0.07943726,97.39182,192.168.1.101,100.78.239.175,2,1,0.36,0
2016-03-02 02:48:00.133,45,234B9614-18C8-49ED-8B56-CAB6C4F40872,my_iOS_device_1,1456908480.000045,40.79922503329887,-96.68578483173314,367.0581,0.27,250.6640625,4,8.080972824855504,-9999,1456908480.107836,15.35627269744873,43.42449951171875,-3.07672119140625,114.7981719970703,111.5210342407227,26,11213.55984866667,0.0696258544921875,1.015884399414062,0.074310302734375,11213.53308066667,-0.03603097165211804,0.04142493812396453,-0.008004663288451166,11213.53308066667,0.7527304335904166,2.381026033273524,-1.466603516840287,-0.01721006631851196,0.01187789253890514,-0.001856942544691265,0.0008619833388365805,0.0145479179918766,0.003786563640460372,XArbitraryCorrectedZVertical,0.484617697478725,-0.5502894197592814,0.4766478643168005,-0.484906233444824,0.07169356197118759,0.9945768117904663,0.07534551620483398,14.97725868225098,42.28270721435547,-2.209237337112427,1,11212.75110366667,unknown,1,2016-03-02 02:47:59.334,2016-03-02 02:47:07.556,27,16.04511,0,1,2016-03-02 02:47:55.810,11212.30655366667,0,-0.07943726,97.39182,192.168.1.101,100.78.239.175,2,1,0.36,0
2016-03-02 02:48:00.184,46,234B9614-18C8-49ED-8B56-CAB6C4F40872,my_iOS_device_1,1456908480.000045,40.79922503329887,-96.68578483173314,367.0581,0.27,250.6640625,4,8.080972824855504,-9999,1456908480.166672,15.42565155029297,43.63333129882812,-3.2088623046875,114.7896499633789,111.5125122070312,26,11213.59014966667,0.0641937255859375,1.006500244140625,0.08447265625,11213.56811066667,-0.02965935874410347,0.02760552891143436,-0.007905061063682203,11213.56811066667,0.7575218363039369,2.38595638374287,-1.466318157841326,-0.01083866413682699,-0.001941313152201474,-0.001757619786076248,-0.001889975857920945,0.02133728004992008,-0.001594335772097111,XArbitraryCorrectedZVertical,0.4847574896841795,-0.5504202898293539,0.4765766971714788,-0.4846878711628626,0.07151582837104797,0.9945471286773682,0.07590463757514954,14.97497844696045,42.28443145751953,-2.191581964492798,1,11212.75110366667,unknown,1,2016-03-02 02:47:59.334,2016-03-02 02:47:07.556,27,16.04511,0,1,2016-03-02 02:47:55.810,11212.30655366667,0,-0.07943726,97.39182,192.168.1.101,100.78.239.175,2,1,0.36,0
2016-03-02 02:48:00.194,47,234B9614-18C8-49ED-8B56-CAB6C4F40872,my_iOS_device_1,1456908480.000045,40.79922503329887,-96.68578483173314,367.0581,0.27,250.6640625,4,8.080972824855504,-9999,1456908480.166672,15.42565155029297,43.63333129882812,-3.2088623046875,114.7896499633789,111.5125122070312,26,11213.62045666667,0.07305908203125,1.008544921875,0.0774993896484375,11213.60309466667,-0.02864362910434725,0.02229811517501545,-0.004690359311847555,11213.60309466667,0.7632321320791381,2.391554930270277,-1.466079995660587,-0.009824926964938641,-0.007248219102621078,0.001455439254641533,-0.002205195371061563,0.01046737097203732,0.005905068479478359,XArbitraryCorrectedZVertical,0.4849924832514468,-0.5504733036608073,0.4764631129534531,-0.4845042158135028,0.07125121355056763,0.9945222735404968,0.07647713273763657,14.96625328063965,42.28899383544922,-2.162997484207153,1,11212.75110366667,unknown,1,2016-03-02 02:47:59.334,2016-03-02 02:47:07.556,27,16.04511,0,1,2016-03-02 02:47:55.810,11213.62039666667,0,-0.03842163,97.39133,192.168.1.101,100.78.239.175,2,1,0.36,0
2016-03-02 02:48:00.225,48,234B9614-18C8-49ED-8B56-CAB6C4F40872,my_iOS_device_1,1456908480.000045,40.79922503329887,-96.68578483173314,367.0581,0.27,250.6640625,4,8.080972824855504,-9999,1456908480.166672,15.42565155029297,43.63333129882812,-3.2088623046875,114.7896499633789,111.5125122070312,26,11213.65078166667,0.070159912109375,1.010162353515625,0.078399658203125,11213.63813666667,-0.03294463426482522,0.01911350714349869,-0.001553954496061235,11213.60309466667,0.7632321320791381,2.391554930270277,-1.466079995660587,-0.009824926964938641,-0.007248219102621078,0.001455439254641533,-0.002205195371061563,0.01046737097203732,0.005905068479478359,XArbitraryCorrectedZVertical,0.4849924832514468,-0.5504733036608073,0.4764631129534531,-0.4845042158135028,0.07125121355056763,0.9945222735404968,0.07647713273763657,14.96625328063965,42.28899383544922,-2.162997484207153,1,11212.75110366667,unknown,1,2016-03-02 02:47:59.334,2016-03-02 02:47:07.556,27,16.04511,0,1,2016-03-02 02:47:55.810,11213.62039666667,0,-0.03842163,97.39133,192.168.1.101,100.78.239.175,2,1,0.36,0
2016-03-02 02:48:00.263,49,234B9614-18C8-49ED-8B56-CAB6C4F40872,my_iOS_device_1,1456908480.000045,40.79922503329887,-96.68578483173314,367.0581,0.27,250.6640625,4,8.080972824855504,-9999,1456908480.225781,15.32158374786377,43.25044250488281,-3.3741455078125,114.7821044921875,111.5049667358398,26,11213.68107966667,0.0621337890625,1.012222290039062,0.0843505859375,11213.67314766667,-0.03817188685243274,0.02334553643174361,-0.008026501209389816,11213.63813666667,0.7656432939540947,2.393681441494696,-1.465570172205346,-0.01412636879831553,-0.01043265592306852,0.004592235665768385,0.004463964607566595,0.01395401731133461,0.001857244758866727,XArbitraryCorrectedZVertical,0.4851446191220355,-0.5505767767340628,0.476207895268098,-0.4844852442978981,0.07143325358629227,0.9944688081741333,0.07700017839670181,14.9620418548584,42.29237747192383,-2.125657558441162,1,11212.75110366667,unknown,1,2016-03-02 02:47:59.334,2016-03-02 02:47:07.556,27,16.04511,0,1,2016-03-02 02:47:55.810,11213.62039666667,0,-0.03842163,97.39133,192.168.1.101,100.78.239.175,2,1,0.36,0
2016-03-02 02:48:00.285,50,234B9614-18C8-49ED-8B56-CAB6C4F40872,my_iOS_device_1,1456908480.000045,40.79922503329887,-96.68578483173314,367.0581,0.27,250.6640625,4,8.080972824855504,-9999,1456908480.225781,15.32158374786377,43.25044250488281,-3.3741455078125,114.7821044921875,111.5049667358398,26,11213.71136066667,0.0738067626953125,1.016586303710938,0.094970703125,11213.70815866667,-0.03711301400301724,0.01696593404045879,-0.008007859081759262,11213.67314766667,0.7720229695578196,2.39982406378669,-1.46524095793502,-0.01935463957488537,-0.006200206000357866,-0.001881831209175289,-0.006833792198449373,0.01549926865845919,0.005420481320470572,XArbitraryCorrectedZVertical,0.4854358242384783,-0.5506282797430263,0.4760325444785886,-0.4843073143060983,0.07118010520935059,0.9944341778755188,0.07767888158559799,14.96200752258301,42.29291152954102,-2.11522388458252,1,11212.75110366667,unknown,1,2016-03-02 02:47:59.334,2016-03-02 02:47:07.556,27,16.04511,0,1,2016-03-02 02:47:55.810,11213.62039666667,0,-0.03842163,97.39133,192.168.1.101,100.78.239.175,2,1,0.36,0
2016-03-02 02:48:00.315,51,234B9614-18C8-49ED-8B56-CAB6C4F40872,my_iOS_device_1,1456908480.000045,40.79922503329887,-96.68578483173314,367.0581,0.27,250.6640625,4,8.080972824855504,-9999,1456908480.286061,15.59910106658936,43.32005310058594,-3.1097412109375,114.7742233276367,111.4970855712891,26,11213.74166766667,0.0753173828125,1.00244140625,0.089996337890625,11213.70815866667,-0.03711301400301724,0.01696593404045879,-0.008007859081759262,11213.70815866667,0.7827822958578794,2.410313678407297,-1.464522376453289,-0.0182986706495285,-0.01257930416613817,-0.001864736084826291,-0.002372391754761338,0.021953409537673,0.01482741069048643,XArbitraryCorrectedZVertical,0.4858985731645197,-0.5507986291114658,0.4757118602889522,-0.4839645366615597,0.07083857804536819,0.994358241558075,0.07895310968160629,14.94031047821045,42.30298233032227,-2.066601514816284,1,11212.75110366667,unknown,1,2016-03-02 02:47:59.334,2016-03-02 02:47:07.556,27,16.04511,0,1,2016-03-02 02:47:55.810,11213.62039666667,0,-0.03842163,97.39133,192.168.1.101,100.78.239.175,2,1,0.36,0
2016-03-02 02:48:00.345,52,234B9614-18C8-49ED-8B56-CAB6C4F40872,my_iOS_device_1,1456908480.000045,40.79922503329887,-96.68578483173314,367.0581,0.27,250.6640625,4,8.080972824855504,-9999,1456908480.343204,16.1888256072998,43.56367492675781,-3.4732666015625,114.76611328125,111.4889755249023,26,11213.77194566667,0.0709075927734375,1.006027221679688,0.09027099609375,11213.74315266667,-0.03186791823610618,0.01698457616808935,-0.002602973649443448,11213.74315266667,0.7883285836741313,2.415359601914814,-1.463559724838274,-0.01305819116532803,-0.01256017945706844,0.003540807869285345,0.004242478869855404,0.008185742422938347,0.009971133433282375,XArbitraryCorrectedZVertical,0.4862238609859696,-0.5509981482844645,0.4752432749116315,-0.4838710853587503,0.07107490301132202,0.9942556619644165,0.08002520352602005,14.93631744384766,42.30600357055664,-2.033407211303711,1,11212.75110366667,unknown,1,2016-03-02 02:47:59.334,2016-03-02 02:47:07.556,27,16.04511,0,1,2016-03-02 02:47:55.810,11213.62039666667,0,-0.03842163,97.39133,192.168.1.101,100.78.239.175,2,1,0.36,0
2016-03-02 02:48:00.376,53,234B9614-18C8-49ED-8B56-CAB6C4F40872,my_iOS_device_1,1456908480.000045,40.79922503329887,-96.68578483173314,367.0581,0.27,250.6640625,4,8.080972824855504,-9999,1456908480.343204,16.1888256072998,43.56367492675781,-3.4732666015625,114.76611328125,111.4889755249023,26,11213.80226566667,0.06744384765625,1.008010864257812,0.0931549072265625,11213.77818566667,-0.03512496424927309,0.02656742871852147,0.002673547418330547,11213.77818566667,0.7934012239233963,2.420169667447555,-1.462499602143557,-0.01631836220622063,-0.002976972842589021,0.008817733265459538,-0.0004776642890647054,0.01188558340072632,0.009113450534641743,XArbitraryCorrectedZVertical,0.4864779715009214,-0.5512875438943006,0.4747971739498027,-0.4837239613670369,0.07138525694608688,0.9941416382789612,0.08115754276514053,14.94742393493652,42.30410385131836,-1.990874767303467,1,11212.75110366667,unknown,1,2016-03-02 02:47:59.334,2016-03-02 02:47:07.556,27,16.04511,0,1,2016-03-02 02:47:55.810,11213.62039666667,0,-0.03842163,97.39133,192.168.1.101,100.78.239.175,2,1,0.36,0
2016-03-02 02:48:00.424,54,234B9614-18C8-49ED-8B56-CAB6C4F40872,my_iOS_device_1,1456908480.000045,40.79922503329887,-96.68578483173314,367.0581,0.27,250.6640625,4,8.080972824855504,-9999,1456908480.401845,16.1888256072998,43.35484313964844,-3.4071044921875,114.7569961547852,111.4798583984375,26,11213.83256066667,0.075286865234375,1.00799560546875,0.0938873291015625,11213.81319566667,-0.04341298787770868,0.02864389542045626,-0.01343404980279571,11213.81319566667,0.8026197352107486,2.429333420697895,-1.461742879831718,-0.02460963279008865,-0.0008998856064863503,-0.007291269954293966,-0.003808419918641448,0.01433277036994696,0.0109450938180089,XArbitraryCorrectedZVertical,0.4868455537054702,-0.5515163071460327,0.4745207316171061,-0.4833645053733076,0.07113019376993179,0.9940595626831055,0.08237765729427338,14.95301532745361,42.30342483520508,-1.963078737258911,1,11212.75110366667,unknown,1,2016-03-02 02:47:59.334,2016-03-02 02:47:07.556,27,16.04511,0,1,2016-03-02 02:47:55.810,11213.62039666667,0,-0.03842163,97.39133,192.168.1.101,100.78.239.175,2,1,0.36,0
2016-03-02 02:48:00.437,55,234B9614-18C8-49ED-8B56-CAB6C4F40872,my_iOS_device_1,1456908480.000045,40.79922503329887,-96.68578483173314,367.0581,0.27,250.6640625,4,8.080972824855504,-9999,1456908480.401845,16.1888256072998,43.35484313964844,-3.4071044921875,114.7569961547852,111.4798583984375,26,11213.86285666667,0.0767974853515625,1.01220703125,0.1026458740234375,11213.84821366667,-0.04224093068196481,0.01692385609523554,-0.0219369905312007,11213.81319566667,0.8026197352107486,2.429333420697895,-1.461742879831718,-0.02460963279008865,-0.0008998856064863503,-0.007291269954293966,-0.003808419918641448,0.01433277036994696,0.0109450938180089,XArbitraryCorrectedZVertical,0.4868455537054702,-0.5515163071460327,0.4745207316171061,-0.4833645053733076,0.07113019376993179,0.9940595626831055,0.08237765729427338,14.95301532745361,42.30342483520508,-1.963078737258911,1,11212.75110366667,unknown,1,2016-03-02 02:47:59.334,2016-03-02 02:47:07.556,27,16.04511,0,1,2016-03-02 02:47:55.810,11213.62039666667,0,-0.03842163,97.39133,192.168.1.101,100.78.239.175,2,1,0.36,0
2016-03-02 02:48:00.477,56,234B9614-18C8-49ED-8B56-CAB6C4F40872,my_iOS_device_1,1456908480.000045,40.79922503329887,-96.68578483173314,367.0581,0.27,250.6640625,4,8.080972824855504,-9999,1456908480.467131,16.08475875854492,43.59849548339844,-3.24176025390625,114.7472534179688,111.4701156616211,26,11213.89315466667,0.0703125,1.010726928710938,0.093414306640625,11213.88320366667,-0.0424084435145308,0.008448878558276383,-0.01021189119990884,11213.84821366667,0.8131405727404929,2.439615521592736,-1.460938456143108,-0.02344080992043018,-0.01261962950229645,-0.01579346880316734,0.006932503543794155,0.01413072645664215,0.0125982603058219,XArbitraryCorrectedZVertical,0.4873122064836333,-0.5517104509305373,0.4741881630924322,-0.4829989417473912,0.07079576700925827,0.9939717054367065,0.08371521532535553,14.93501853942871,42.31377410888672,-1.875132083892822,1,11212.75110366667,unknown,1,2016-03-02 02:47:59.334,2016-03-02 02:47:07.556,27,16.04511,0,1,2016-03-02 02:47:55.810,11213.62039666667,0,-0.03842163,97.39133,192.168.1.101,100.78.239.175,2,1,0.36,0
2016-03-02 02:48:00.509,57,234B9614-18C8-49ED-8B56-CAB6C4F40872,my_iOS_device_1,1456908480.000045,40.79922503329887,-96.68578483173314,367.0581,0.27,250.6640625,4,8.080972824855504,-9999,1456908480.467131,16.08475875854492,43.59849548339844,-3.24176025390625,114.7472534179688,111.4701156616211,26,11213.92345366667,0.075347900390625,1.006210327148438,0.093963623046875,11213.91823266667,-0.03827415223829179,0.004221909276102617,-0.001623729316621312,11213.88320366667,0.8233617339008055,2.44912881457801,-1.459689489586611,-0.02361397258937359,-0.02109415084123611,-0.004067010246217251,0.001354862935841084,0.02014306746423244,0.0108663085848093,XArbitraryCorrectedZVertical,0.4878881566491651,-0.5519377908487518,0.4735819185416312,-0.4827525122305483,0.07078868895769119,0.9938339591026306,0.08534035831689835,14.93027877807617,42.31711196899414,-1.83711838722229,1,11212.75110366667,unknown,1,2016-03-02 02:47:59.334,2016-03-02 02:47:07.556,27,16.04511,0,1,2016-03-02 02:47:55.810,11213.62039666667,0,-0.03842163,97.39133,192.168.1.101,100.78.239.175,2,1,0.36,0
2016-03-02 02:48:00.528,58,234B9614-18C8-49ED-8B56-CAB6C4F40872,my_iOS_device_1,1456908480.000045,40.79922503329887,-96.68578483173314,367.0581,0.27,250.6640625,4,8.080972824855504,-9999,1456908480.520727,15.63379383087158,43.63330078125,-3.0103759765625,114.73779296875,111.4606552124023,26,11213.95375266667,0.0731048583984375,1.013671875,0.0897216796875,11213.91823266667,-0.03827415223829179,0.004221909276102617,-0.001623729316621312,11213.91823266667,0.8292146542565643,2.454063553958055,-1.458845946267235,-0.01948166638612747,-0.02532078512012959,0.004521199502050877,0.002267182804644108,0.01291273348033428,0.007550835143774748,XArbitraryCorrectedZVertical,0.4883444350181181,-0.5519854705997402,0.4730643845600261,-0.4827440741163591,0.07089871168136597,0.9937400817871094,0.08633649349212646,14.92216682434082,42.32237243652344,-1.781007289886475,1,11212.75110366667,unknown,1,2016-03-02 02:47:59.334,2016-03-02 02:47:07.556,27,16.04511,0,1,2016-03-02 02:47:55.810,11213.62039666667,0,-0.03842163,97.39133,192.168.1.101,100.78.239.175,2,1,0.36,0
2016-03-02 02:48:00.562,59,234B9614-18C8-49ED-8B56-CAB6C4F40872,my_iOS_device_1,1456908480.000045,40.79922503329887,-96.68578483173314,367.0581,0.27,250.6640625,4,8.080972824855504,-9999,1456908480.520727,15.63379383087158,43.63330078125,-3.0103759765625,114.73779296875,111.4606552124023,26,11213.98404966667,0.067962646484375,1.00555419921875,0.084136962890625,11213.95325066667,-0.03390150804449069,0.005265069475086654,-0.01008672262867511,11213.95325066667,0.8329923494145437,2.456934554495527,-1.458064388357153,-0.01511080656200647,-0.02427742816507816,-0.003941093105822802,0.00277187954634428,0.02012620493769646,0.006486635655164719,XArbitraryCorrectedZVertical,0.4887176706912003,-0.5520196422038397,0.4725673533689201,-0.4828140941451535,0.07114169746637344,0.9936524629592896,0.08714129775762558,14.92938232421875,42.32117080688477,-1.748817920684814,1,11212.75110366667,unknown,1,2016-03-02 02:47:59.334,2016-03-02 02:47:07.556,27,16.04511,0,1,2016-03-02 02:47:55.810,11213.62039666667,0,-0.03842163,97.39133,192.168.1.101,100.78.239.175,2,1,0.36,0
2016-03-02 02:48:00.590,60,234B9614-18C8-49ED-8B56-CAB6C4F40872,my_iOS_device_1,1456908480.000045,40.79922503329887,-96.68578483173314,367.0581,0.27,250.6640625,4,8.080972824855504,-9999,1456908480.581096,15.49503326416016,43.77252197265625,-3.1427001953125,114.7263107299805,111.4491729736328,26,11214.01435166667,0.07379150390625,1.014205932617188,0.0892791748046875,11213.98826166667,-0.02435380922044761,0.01059512008077124,-0.007819307276581651,11213.98826166667,0.8364597449725369,2.459684053649155,-1.458188046699226,-0.005562789738178253,-0.01894696615636349,-0.001675135572440922,-0.00286173983477056,0.0118878148496151,-0.003104209434241056,XArbitraryCorrectedZVertical,0.48902332306493,-0.5517941425010288,0.4724476288531193,-0.482879541698705,0.07082438468933105,0.993666410446167,0.08724117279052734,14.9228687286377,42.3240852355957,-1.733815431594849,1,11212.75110366667,unknown,1,2016-03-02 02:47:59.334,2016-03-02 02:47:07.556,27,16.04511,0,1,2016-03-02 02:47:55.810,11213.62039666667,0,-0.03842163,97.39133,192.168.1.101,100.78.239.175,2,1,0.36,0
2016-03-02 02:48:00.617,61,234B9614-18C8-49ED-8B56-CAB6C4F40872,my_iOS_device_1,1456908480.000045,40.79922503329887,-96.68578483173314,367.0581,0.27,250.6640625,4,8.080972824855504,-9999,1456908480.581096,15.49503326416016,43.77252197265625,-3.1427001953125,114.7263107299805,111.4491729736328,26,11214.04462966667,0.0731201171875,1.007675170898438,0.0854339599609375,11214.02327466667,-0.02336497750770119,0.008483765968556422,-0.002475141917119644,11214.02327466667,0.8368668719098584,2.459419244895962,-1.458081191880334,-0.004573559854179621,-0.02105818502604961,0.003669026307761669,0.002877074759453535,0.02055156044661999,0.00197434495203197,XArbitraryCorrectedZVertical,0.4891996248317417,-0.5516666946185455,0.4722454059791731,-0.4830443681947826,0.07091443240642548,0.9936543703079224,0.08730483055114746,14.91262435913086,42.32743835449219,-1.740075349807739,1,11212.75110366667,unknown,1,2016-03-02 02:47:59.334,2016-03-02 02:47:07.556,27,16.04511,0,1,2016-03-02 02:47:55.810,11213.62039666667,0,-0.03842163,97.39133,192.168.1.101,100.78.239.175,2,1,0.36,0
2016-03-02 02:48:00.669,62,234B9614-18C8-49ED-8B56-CAB6C4F40872,my_iOS_device_1,1456908480.000045,40.79922503329887,-96.68578483173314,367.0581,0.27,250.6640625,4,8.080972824855504,-9999,1456908480.637205,15.63379383087158,43.49407958984375,-3.208740234375,114.7129821777344,111.4358444213867,26,11214.07492566667,0.0723876953125,1.008346557617188,0.087890625,11214.05828766667,-0.0190599776055881,0.01698537511641637,-0.005614209893996042,11214.02327466667,0.8368668719098584,2.459419244895962,-1.458081191880334,-0.004573559854179621,-0.02105818502604961,0.003669026307761669,0.002877074759453535,0.02055156044661999,0.00197434495203197,XArbitraryCorrectedZVertical,0.4891996248317417,-0.5516666946185455,0.4722454059791731,-0.4830443681947826,0.07091443240642548,0.9936543703079224,0.08730483055114746,14.91262435913086,42.32743835449219,-1.740075349807739,1,11212.75110366667,unknown,1,2016-03-02 02:47:59.334,2016-03-02 02:47:07.556,27,16.04511,0,1,2016-03-02 02:47:55.810,11213.62039666667,0,-0.03842163,97.39133,192.168.1.101,100.78.239.175,2,1,0.36,0
2016-03-02 02:48:00.679,63,234B9614-18C8-49ED-8B56-CAB6C4F40872,my_iOS_device_1,1456908480.000045,40.79922503329887,-96.68578483173314,367.0581,0.27,250.6640625,4,8.080972824855504,-9999,1456908480.637205,15.63379383087158,43.49407958984375,-3.208740234375,114.7129821777344,111.4358444213867,26,11214.10525366667,0.075439453125,1.012344360351562,0.097503662109375,11214.09329866667,-0.01050590418425359,0.01804637849470394,-0.008687764108056491,11214.05828766667,0.8359474919692961,2.457907557474857,-1.457915329553483,-0.0002103534352499992,-0.01252160593867302,0.0005339429480955005,-0.000319128594128415,0.01114029809832573,-0.001052103936672211,XArbitraryCorrectedZVertical,0.4893051255177354,-0.5515823989024992,0.4720369302976308,-0.4832375066137003,0.07115042954683304,0.9936357140541077,0.08732529729604721,14.91131401062012,42.32773208618164,-1.74415397644043,1,11212.75110366667,unknown,1,2016-03-02 02:47:59.334,2016-03-02 02:47:07.556,27,16.04511,0,1,2016-03-02 02:47:55.810,11213.62039666667,0,-0.03842163,97.39133,192.168.1.101,100.78.239.175,2,1,0.36,0
2016-03-02 02:48:00.710,64,234B9614-18C8-49ED-8B56-CAB6C4F40872,my_iOS_device_1,1456908480.000045,40.79922503329887,-96.68578483173314,367.0581,0.27,250.6640625,4,8.080972824855504,-9999,1456908480.696029,15.28689765930176,43.63328552246094,-3.1427001953125,114.6985626220703,111.4214248657227,26,11214.13555466667,0.0763397216796875,1.008438110351562,0.086578369140625,11214.09329866667,-0.01050590418425359,0.01804637849470394,-0.008687764108056491,11214.09329866667,0.8349889576549518,2.456586879731681,-1.458088821372689,0.008343609981238842,-0.01146046258509159,-0.002539373701438308,0.003413075115531683,0.01846024952828884,0.003661524038761854,XArbitraryCorrectedZVertical,0.4893502582581494,-0.5514392091929088,0.4720090155024954,-0.4833824702983608,0.07115662842988968,0.9936552047729492,0.08709775656461716,14.92088890075684,42.32415771484375,-1.749054908752441,1,11212.75110366667,unknown,1,2016-03-02 02:47:59.334,2016-03-02 02:47:07.556,27,16.04511,0,1,2016-03-02 02:47:55.810,11213.62039666667,0,-0.03842163,97.39133,192.168.1.101,100.78.239.175,2,1,0.36,0
2016-03-02 02:48:00.760,65,234B9614-18C8-49ED-8B56-CAB6C4F40872,my_iOS_device_1,1456908480.000045,40.79922503329887,-96.68578483173314,367.0581,0.27,250.6640625,4,8.080972824855504,-9999,1456908480.696029,15.28689765930176,43.63328552246094,-3.1427001953125,114.6985626220703,111.4214248657227,26,11214.16585666667,0.077117919921875,1.006210327148438,0.0884246826171875,11214.12831266667,-0.0052565473595984,0.004237888242643092,-0.004341485209047174,11214.12831266667,0.8324011868473626,2.453348267545784,-1.458159575830052,0.01359127461910248,-0.02526877075433731,0.001808132627047598,0.004930790513753891,0.01712477952241898,-0.0006614236626774073,XArbitraryCorrectedZVertical,0.4894002199733275,-0.5512655422370873,0.4718681221955967,-0.4836674496880154,0.07139366865158081,0.9936631917953491,0.08681254833936691,14.91834735870361,42.32436752319336,-1.765478849411011,1,11212.75110366667,unknown,1,2016-03-02 02:47:59.334,2016-03-02 02:47:07.556,27,16.04511,0,1,2016-03-02 02:47:55.810,11213.62039666667,0,-0.03842163,97.39133,192.168.1.101,100.78.239.175,2,1,0.36,0
2016-03-02 02:48:00.770,66,234B9614-18C8-49ED-8B56-CAB6C4F40872,my_iOS_device_1,1456908480.000045,40.79922503329887,-96.68578483173314,367.0581,0.27,250.6640625,4,8.080972824855504,-9999,1456908480.755324,15.356276512146,43.07637023925781,-3.539306640625,114.6830215454102,111.4058837890625,26,11214.19615966667,0.0630645751953125,1.013900756835938,0.0855865478515625,11214.16332766667,-0.006332464439990412,0.007430219441321074,-0.003292998687882978,11214.16332766667,0.8269104419028397,2.446947954232651,-1.458287320677252,0.01251505315303802,-0.02207642234861851,0.002857903484255075,0.004976681433618069,0.01178511139005423,0.003114420454949141,XArbitraryCorrectedZVertical,0.4893955149365865,-0.5510174076511074,0.4716772958270627,-0.4841408627937483,0.07186657935380936,0.99367755651474,0.08625631034374237,14.92540454864502,42.32083892822266,-1.790234088897705,1,11212.75110366667,unknown,1,2016-03-02 02:47:59.334,2016-03-02 02:47:07.556,27,16.04511,0,1,2016-03-02 02:47:55.810,11213.62039666667,0,-0.03842163,97.39133,192.168.1.101,100.78.239.175,2,1,0.36,0
2016-03-02 02:48:00.832,67,234B9614-18C8-49ED-8B56-CAB6C4F40872,my_iOS_device_1,1456908480.000045,40.79922503329887,-96.68578483173314,367.0581,0.27,250.6640625,4,8.080972824855504,-9999,1456908480.81334,15.14813709259033,43.07637023925781,-3.4071044921875,114.6654586791992,111.3883209228516,26,11214.22646466667,0.0734100341796875,1.004470825195312,0.084930419921875,11214.19833866667,-0.008474444904741144,0.007431551021866115,-0.002258360604387194,11214.19833866667,0.8260474401160962,2.445414600749605,-1.458699795450798,0.01037268247455359,-0.0220746137201786,0.003890827298164368,-0.008671332150697708,0.02017699740827084,-0.0002449633611831814,XArbitraryCorrectedZVertical,0.4895155422231536,-0.5507179764031302,0.4716622158332248,-0.4843748533354143,0.07173591107130051,0.9937237501144409,0.08583150804042816,14.94314575195312,42.3129768371582,-1.827701091766357,1,11212.75110366667,unknown,1,2016-03-02 02:47:59.334,2016-03-02 02:47:07.556,27,16.04511,0,1,2016-03-02 02:47:55.810,11213.62039666667,0,-0.03842163,97.39133,192.168.1.101,100.78.239.175,2,1,0.36,0
2016-03-02 02:48:00.841,68,234B9614-18C8-49ED-8B56-CAB6C4F40872,my_iOS_device_1,1456908480.000045,40.79922503329887,-96.68578483173314,367.0581,0.27,250.6640625,4,8.080972824855504,-9999,1456908480.81334,15.14813709259033,43.07637023925781,-3.4071044921875,114.6654586791992,111.3883209228516,26,11214.25676866667,0.07733154296875,1.01068115234375,0.0892791748046875,11214.23332666667,-0.01274375844824717,0.007431284705757106,-0.001254615189536329,11214.23332666667,0.8225845683881108,2.441205653913669,-1.459043829307046,0.006104239728301764,-0.02207472547888756,0.004894121084362268,0.001533850096166134,0.0107086393982172,-0.0003369993646629155,XArbitraryCorrectedZVertical,0.489551836395256,-0.5504295678209795,0.4715971043275718,-0.484729266230429,0.07187618315219879,0.993762195110321,0.08526741713285446,14.92949676513672,42.31630706787109,-1.8618483543396,1,11212.75110366667,unknown,1,2016-03-02 02:47:59.334,2016-03-02 02:47:07.556,27,16.04511,0,1,2016-03-02 02:47:55.810,11213.62039666667,0,-0.03842163,97.39133,192.168.1.101,100.78.239.175,2,1,0.36,0
2016-03-02 02:48:00.871,69,234B9614-18C8-49ED-8B56-CAB6C4F40872,my_iOS_device_1,1456908480.000045,40.79922503329887,-96.68578483173314,367.0581,0.27,250.6640625,4,8.080972824855504,-9999,1456908480.81334,15.14813709259033,43.07637023925781,-3.4071044921875,114.6654586791992,111.3883209228516,26,11214.28707466667,0.0705108642578125,1.010223388671875,0.0843505859375,11214.26836666667,-0.01057248321150557,0.007424094170813893,-0.00442031477731352,11214.23332666667,0.8225845683881108,2.441205653913669,-1.459043829307046,0.006104239728301764,-0.02207472547888756,0.004894121084362268,0.001533850096166134,0.0107086393982172,-0.0003369993646629155,XArbitraryCorrectedZVertical,0.489551836395256,-0.5504295678209795,0.4715971043275718,-0.484729266230429,0.07187618315219879,0.993762195110321,0.08526741713285446,14.92949676513672,42.31630706787109,-1.8618483543396,1,11212.75110366667,unknown,1,2016-03-02 02:47:59.334,2016-03-02 02:47:07.556,27,16.04511,0,1,2016-03-02 02:47:55.810,11213.62039666667,0,-0.03842163,97.39133,192.168.1.101,100.78.239.175,2,1,0.36,0
2016-03-02 02:48:00.921,70,234B9614-18C8-49ED-8B56-CAB6C4F40872,my_iOS_device_1,1456908480.000045,40.79922503329887,-96.68578483173314,367.0581,0.27,250.6640625,4,8.080972824855504,-9999,1456908480.912388,15.11344814300537,43.18077087402344,-3.307861328125,114.6358184814453,111.3586807250977,26,11214.31737766667,0.0673065185546875,1.010040283203125,0.0833740234375,11214.30337666667,-0.008342618430782222,0.007405185727074329,-0.01184813737365352,11214.26836666667,0.8197765660299927,2.437633344004291,-1.458880621932957,0.008274850435554981,-0.02208181284368038,0.001729780226014555,0.003459327854216099,0.01812736690044403,0.005045698024332523,XArbitraryCorrectedZVertical,0.4896224388446974,-0.5503060421135216,0.4713435635121019,-0.4850447118862686,0.07228530198335648,0.9937439560890198,0.08513374626636505,14.93221092224121,42.31455993652344,-1.879719495773315,1,11212.75110366667,unknown,1,2016-03-02 02:47:59.334,2016-03-02 02:47:07.556,27,16.04511,0,1,2016-03-02 02:47:55.810,11213.62039666667,0,-0.03842163,97.39133,192.168.1.101,100.78.239.175,2,1,0.36,0
2016-03-02 02:48:00.923,71,234B9614-18C8-49ED-8B56-CAB6C4F40872,my_iOS_device_1,1456908480.000045,40.79922503329887,-96.68578483173314,367.0581,0.27,250.6640625,4,8.080972824855504,-9999,1456908480.912388,15.11344814300537,43.18077087402344,-3.307861328125,114.6358184814453,111.3586807250977,26,11214.34767466667,0.0788116455078125,1.005844116210938,0.0873260498046875,11214.33838966667,-0.004210723999524283,-1.198422490535657e-05,-0.003258377593711948,11214.30337666667,0.8194324144772097,2.43658273095068,-1.459359927051312,0.01050468720495701,-0.02210044302046299,-0.005698950961232185,-0.004317005630582571,0.01671591773629189,-0.001473551499657333,XArbitraryCorrectedZVertical,0.4897721693804385,-0.5499733772110513,0.4713455634163719,-0.4852688598160313,0.07206603139638901,0.9937973618507385,0.0846949890255928,14.94525718688965,42.30910873413086,-1.898544788360596,1,11212.75110366667,unknown,1,2016-03-02 02:47:59.334,2016-03-02 02:47:07.556,27,16.04511,0,1,2016-03-02 02:47:55.810,11213.62039666667,0,-0.03842163,97.39133,192.168.1.101,100.78.239.175,2,1,0.36,0
2016-03-02 02:48:00.952,72,234B9614-18C8-49ED-8B56-CAB6C4F40872,my_iOS_device_1,1456908480.000045,40.79922503329887,-96.68578483173314,367.0581,0.27,250.6640625,4,8.080972824855504,-9999,1456908480.912388,15.11344814300537,43.18077087402344,-3.307861328125,114.6358184814453,111.3586807250977,26,11214.37796366667,0.072906494140625,1.009536743164062,0.083953857421875,11214.33838966667,-0.004210723999524283,-1.198422490535657e-05,-0.003258377593711948,11214.33838966667,0.8184753041980187,2.434748218549011,-1.45982760497635,0.01463664602488279,-0.02951722778379917,0.002889372641220689,0.00300122401677072,0.01503132842481136,0.00423073535785079,XArbitraryCorrectedZVertical,0.4899384104657989,-0.5496043639747175,0.4713000139994015,-0.485563274820445,0.07191943377256393,0.9938492774963379,0.08420920372009277,14.92411041259766,42.3150634765625,-1.932002305984497,1,11214.37811766667,walking,0,2016-03-02 02:48:00.950,2016-03-02 02:47:07.556,27,16.04511,0,1,2016-03-02 02:47:55.810,11213.62039666667,0,-0.03842163,97.39133,192.168.1.101,100.78.239.175,2,1,0.36,0
2016-03-02 02:48:00.999,73,234B9614-18C8-49ED-8B56-CAB6C4F40872,my_iOS_device_1,1456908480.000045,40.79922503329887,-96.68578483173314,367.0581,0.27,250.6640625,4,8.080972824855504,-9999,1456908480.962348,15.00937938690186,43.07632446289062,-3.20867919921875,114.6145706176758,111.3374328613281,26,11214.40826766667,0.0701141357421875,1.014205932617188,0.0880584716796875,11214.37340466667,-0.00741157731369052,0.006368949746924498,-0.002242381637846718,11214.37340466667,0.8146336245231339,2.429999550998156,-1.459948816813248,0.01143576856702566,-0.02313623577356339,0.00390627421438694,-0.0004472268628887832,0.01390402112156153,-0.001698477426543832,XArbitraryCorrectedZVertical,0.4900011004201024,-0.5493511386133595,0.4711141834361798,-0.4859667419243358,0.07223983108997345,0.9938626885414124,0.08377550542354584,14.92539024353027,42.31315612792969,-1.963661670684814,1,11214.37811766667,walking,0,2016-03-02 02:48:00.950,2016-03-02 02:47:07.556,27,16.04511,0,1,2016-03-02 02:47:55.810,11213.62039666667,0,-0.03842163,97.39133,192.168.1.101,100.78.239.175,2,1,0.36,0
2016-03-02 02:48:01.020,74,234B9614-18C8-49ED-8B56-CAB6C4F40872,my_iOS_device_1,1456908480.000045,40.79922503329887,-96.68578483173314,367.0581,0.27,250.6640625,4,8.080972824855504,-9999,1456908480.962348,15.00937938690186,43.07632446289062,-3.20867919921875,114.6145706176758,111.3374328613281,26,11214.43858066667,0.06591796875,1.007522583007812,0.074920654296875,11214.40841566667,-0.008514924953310347,-0.007450193149496668,-0.0001198422490535657,11214.40841566667,0.8126824408337798,2.42695323099958,-1.460114812500496,0.01033181976526976,-0.03695501759648323,0.006027969066053629,-0.002272447338327765,0.02032488025724888,0.004628034774214029,XArbitraryCorrectedZVertical,0.4901820360704819,-0.5490325945357886,0.4709028586781917,-0.4863489275610695,0.07238658517599106,0.9938810467720032,0.08343043923377991,14.92942237854004,42.31085586547852,-1.982438325881958,1,11214.37811766667,walking,0,2016-03-02 02:48:00.950,2016-03-02 02:47:07.556,27,16.04511,0,1,2016-03-02 02:47:55.810,11213.62039666667,0,-0.03842163,97.39133,192.168.1.101,100.78.239.175,2,1,0.36,0
2016-03-02 02:48:01.045,75,234B9614-18C8-49ED-8B56-CAB6C4F40872,my_iOS_device_1,1456908480.000045,40.79922503329887,-96.68578483173314,367.0581,0.27,250.6640625,4,8.080972824855504,-9999,1456908481.02215,14.59310436248779,43.21556091308594,-3.34088134765625,114.5917510986328,111.3146133422852,26,11214.46888266667,0.0659332275390625,1.009506225585938,0.083709716796875,11214.44340466667,-0.0009531453541393593,0.01061269694396576,-0.007479487921487541,11214.44340466667,0.8094593121524772,2.422809265741882,-1.460706241395293,0.01789410598576069,-0.01889184303581715,-0.001332813873887062,-0.00642665708437562,0.0135763781145215,-0.007766694761812687,XArbitraryCorrectedZVertical,0.4902713914069042,-0.5486142882823569,0.4708881005512084,-0.4867450279352163,0.07234462350606918,0.9939461946487427,0.08268734812736511,14.93019866943359,42.30902481079102,-2.015421152114868,1,11214.37811766667,walking,0,2016-03-02 02:48:00.950,2016-03-02 02:47:07.556,27,16.04511,0,1,2016-03-02 02:47:55.810,11213.62039666667,0,-0.03842163,97.39133,192.168.1.101,100.78.239.175,2,1,0.36,0
2016-03-02 02:48:01.094,76,234B9614-18C8-49ED-8B56-CAB6C4F40872,my_iOS_device_1,1456908480.999984,40.79922742214128,-96.68578424499992,366.7826,0.27,292.1484375,4,7.862726247901607,-9999,1456908481.083368,14.97468757629395,42.97190856933594,-3.24176025390625,114.5665130615234,111.2893753051758,26,11214.49916566667,0.077178955078125,1.015243530273438,0.077850341796875,11214.47842766667,0.002062884580375378,0.01171364773860452,0.005352687474950261,11214.44340466667,0.8094593121524772,2.422809265741882,-1.460706241395293,0.01789410598576069,-0.01889184303581715,-0.001332813873887062,-0.00642665708437562,0.0135763781145215,-0.007766694761812687,XArbitraryCorrectedZVertical,0.4902713914069042,-0.5486142882823569,0.4708881005512084,-0.4867450279352163,0.07234462350606918,0.9939461946487427,0.08268734812736511,14.93019866943359,42.30902481079102,-2.015421152114868,1,11214.37811766667,walking,0,2016-03-02 02:48:00.950,2016-03-02 02:47:07.556,27,16.04511,0,1,2016-03-02 02:47:55.810,11213.62039666667,0,-0.03842163,97.39133,192.168.1.101,100.78.239.175,2,1,0.36,0
2016-03-02 02:48:01.104,77,234B9614-18C8-49ED-8B56-CAB6C4F40872,my_iOS_device_1,1456908480.999984,40.79922742214128,-96.68578424499992,366.7826,0.27,292.1484375,4,7.862726247901607,-9999,1456908481.083368,14.97468757629395,42.97190856933594,-3.24176025390625,114.5665130615234,111.2893753051758,26,11214.52948766667,0.074920654296875,1.0089111328125,0.076751708984375,11214.51345366667,0.01054212317507866,0.01066249805635025,0.00760785228602936,11214.47842766667,0.8069077025275512,2.419733562380798,-1.461504016602212,0.02091127261519432,-0.01779048144817352,0.01149637904018164,-0.006141390651464462,0.01547268778085709,0.001840463257394731,XArbitraryCorrectedZVertical,0.4902943274858242,-0.5482208489273465,0.4710478017280744,-0.487010617670447,0.07207461446523666,0.9940335154533386,0.08186925202608109,14.92857360839844,42.30862426757812,-2.035774707794189,1,11214.37811766667,walking,0,2016-03-02 02:48:00.950,2016-03-02 02:47:07.556,27,16.04511,0,1,2016-03-02 02:47:55.810,11213.62039666667,0,-0.03842163,97.39133,192.168.1.101,100.78.239.175,2,1,0.36,0
2016-03-02 02:48:01.159,78,234B9614-18C8-49ED-8B56-CAB6C4F40872,my_iOS_device_1,1456908480.999984,40.79922742214128,-96.68578424499992,366.7826,0.27,292.1484375,4,7.862726247901607,-9999,1456908481.136593,15.18282318115234,42.8326416015625,-3.37396240234375,114.5404281616211,111.2632904052734,26,11214.55979166667,0.0774993896484375,1.003677368164062,0.0728607177734375,11214.54846566667,0.007365770942941157,0.01065717173417009,0.006495982530921277,11214.51345366667,0.7962880089450928,2.408577553232425,-1.461918417890201,0.02939139492809772,-0.01884151808917522,0.01375207863748074,0.00598176009953022,0.02058504335582256,-0.003040961688384414,XArbitraryCorrectedZVertical,0.4900116609349779,-0.5479649253325632,0.4710531443002592,-0.4875776327907796,0.07270781695842743,0.9940786361694336,0.08075397461652756,14.91430473327637,42.30984497070312,-2.113377332687378,1,11214.37811766667,walking,0,2016-03-02 02:48:00.950,2016-03-02 02:47:07.556,27,16.04511,0,1,2016-03-02 02:47:55.810,11213.62039666667,0,-0.03842163,97.39133,192.168.1.101,100.78.239.175,2,1,0.36,0
2016-03-02 02:48:01.164,79,234B9614-18C8-49ED-8B56-CAB6C4F40872,my_iOS_device_1,1456908480.999984,40.79922742214128,-96.68578424499992,366.7826,0.27,292.1484375,4,7.862726247901607,-9999,1456908481.136593,15.18282318115234,42.8326416015625,-3.37396240234375,114.5404281616211,111.2632904052734,26,11214.59009166667,0.074554443359375,1.007080078125,0.085906982421875,11214.54846566667,0.007365770942941157,0.01065717173417009,0.006495982530921277,11214.54846566667,0.7841911380932268,2.395879774034481,-1.462601880009198,0.02621711604297161,-0.01884683407843113,0.01264042034745216,-0.0004361246537882835,0.01488051470369101,-0.008875312283635139,XArbitraryCorrectedZVertical,0.4896923262584919,-0.5475983896790113,0.4711448242598062,-0.4882212447217913,0.07326632738113403,0.9941526651382446,0.07932513952255249,14.94476985931396,42.29529571533203,-2.188175439834595,1,11214.37811766667,walking,0,2016-03-02 02:48:00.950,2016-03-02 02:47:07.556,27,16.04511,0,1,2016-03-02 02:47:55.810,11213.62039666667,0,-0.03842163,97.39133,192.168.1.101,100.78.239.175,2,1,0.36,0
2016-03-02 02:48:01.195,80,234B9614-18C8-49ED-8B56-CAB6C4F40872,my_iOS_device_1,1456908480.999984,40.79922742214128,-96.68578424499992,366.7826,0.27,292.1484375,4,7.862726247901607,-9999,1456908481.136593,15.18282318115234,42.8326416015625,-3.37396240234375,114.5404281616211,111.2632904052734,26,11214.62039466667,0.076934814453125,1.013641357421875,0.077362060546875,11214.58346466667,-0.002132393084826446,0.01276213425976872,0.001028246496879594,11214.58346466667,0.7746454688153663,2.385665759852568,-1.462860948398018,0.01672005839645863,-0.01674183644354343,0.007174011785537004,0.003954299259930849,0.01259427238255739,0.006117908284068108,XArbitraryCorrectedZVertical,0.4894873833721718,-0.5473524772241349,0.4710710229803103,-0.488773422461114,0.07389604300260544,0.9941806197166443,0.07838526368141174,14.95553398132324,42.28910064697266,-2.233809947967529,1,11214.37811766667,walking,0,2016-03-02 02:48:00.950,2016-03-02 02:47:07.556,27,16.04511,0,1,2016-03-02 02:47:55.810,11213.62039666667,0,-0.03842163,97.39133,192.168.1.101,100.78.239.175,2,1,0.36,0
2016-03-02 02:48:01.237,81,234B9614-18C8-49ED-8B56-CAB6C4F40872,my_iOS_device_1,1456908480.999984,40.79922742214128,-96.68578424499992,366.7826,0.27,292.1484375,4,7.862726247901607,-9999,1456908481.196133,15.91130828857422,42.72822570800781,-3.3409423828125,114.512825012207,111.2356872558594,26,11214.65069266667,0.076141357421875,1.007293701171875,0.0838470458984375,11214.61848266667,-0.004292216728880708,0.008512794424438285,0.003130545861388145,11214.61848266667,0.7712164405560613,2.38162561698035,-1.463088501096155,0.0145592363551259,-0.020990876480937,0.009275587275624275,-0.002156861824914813,0.01894795894622803,0.001805082429200411,XArbitraryCorrectedZVertical,0.4895030641702294,-0.5471268549186629,0.471003934033128,-0.4890748909114895,0.07405627518892288,0.994205117225647,0.07792209088802338,14.97565650939941,42.28000259399414,-2.27094554901123,1,11214.37811766667,walking,0,2016-03-02 02:48:00.950,2016-03-02 02:47:07.556,27,16.04511,0,1,2016-03-02 02:47:55.810,11213.62039666667,0,-0.03842163,97.39133,192.168.1.101,100.78.239.175,2,1,0.36,0
2016-03-02 02:48:01.257,82,234B9614-18C8-49ED-8B56-CAB6C4F40872,my_iOS_device_1,1456908480.999984,40.79922742214128,-96.68578424499992,366.7826,0.27,292.1484375,4,7.862726247901607,-9999,1456908481.196133,15.91130828857422,42.72822570800781,-3.3409423828125,114.512825012207,111.2356872558594,26,11214.68098266667,0.0807342529296875,1.004837036132812,0.077117919921875,11214.65349866667,-0.003221093338450838,-0.001059938113851537,0.002085255133532043,11214.65349866667,0.7637479004106495,2.373242371083205,-1.463040978592696,0.01562931388616562,-0.03056346066296101,0.008231962099671364,0.001401617075316608,0.01309369318187237,0.006514545064419508,XArbitraryCorrectedZVertical,0.4894334951197394,-0.5469196506966962,0.4707621725345662,-0.4896087483360721,0.0747397392988205,0.9941999912261963,0.077332504093647,14.97589683532715,42.27896499633789,-2.288600921630859,1,11214.37811766667,walking,0,2016-03-02 02:48:00.950,2016-03-02 02:47:07.556,27,16.04511,0,1,2016-03-02 02:47:55.810,11213.62039666667,0,-0.03842163,97.39133,192.168.1.101,100.78.239.175,2,1,0.36,0
2016-03-02 02:48:01.313,83,234B9614-18C8-49ED-8B56-CAB6C4F40872,my_iOS_device_1,1456908480.999984,40.79922742214128,-96.68578424499992,366.7826,0.27,292.1484375,4,7.862726247901607,-9999,1456908481.257696,15.63379383087158,42.79783630371094,-3.5391845703125,114.4828491210938,111.2057113647461,26,11214.71129166667,0.084320068359375,1.011627197265625,0.0810546875,11214.68851966667,-0.0117197730091117,-0.006386260294010013,0.0008988168679017429,11214.68851966667,0.759093493439069,2.367432170903584,-1.463063450245953,0.007130260113626719,-0.03588965907692909,0.007046263664960861,0.005562078673392534,0.01063461136072874,0.0002369489520788193,XArbitraryCorrectedZVertical,0.489528589919346,-0.5466280683735191,0.4704884160204953,-0.4901021984324672,0.07517217099666595,0.9942024350166321,0.07688096910715103,15.00657367706299,42.26478576660156,-2.348739147186279,1,11214.37811766667,walking,0,2016-03-02 02:48:00.950,2016-03-02 02:47:07.556,27,16.04511,0,1,2016-03-02 02:47:55.810,11213.62039666667,0,-0.03842163,97.39133,192.168.1.101,100.78.239.175,2,1,0.36,0
2016-03-02 02:48:01.317,84,234B9614-18C8-49ED-8B56-CAB6C4F40872,my_iOS_device_1,1456908480.999984,40.79922742214128,-96.68578424499992,366.7826,0.27,292.1484375,4,7.862726247901607,-9999,1456908481.312613,15.63379383087158,42.79783630371094,-3.5391845703125,114.4519119262695,111.1747741699219,26,11214.74158466667,0.0784759521484375,1.010940551757812,0.0717926025390625,11214.72352966667,-0.007445665775643534,-5.5926382891664e-06,-0.0001081243402572171,11214.68851966667,0.759093493439069,2.367432170903584,-1.463063450245953,0.007130260113626719,-0.03588965907692909,0.007046263664960861,0.005562078673392534,0.01063461136072874,0.0002369489520788193,XArbitraryCorrectedZVertical,0.489528589919346,-0.5466280683735191,0.4704884160204953,-0.4901021984324672,0.07517217099666595,0.9942024350166321,0.07688096910715103,15.00657367706299,42.26478576660156,-2.348739147186279,1,11214.37811766667,walking,0,2016-03-02 02:48:00.950,2016-03-02 02:47:07.556,27,16.04511,0,1,2016-03-02 02:47:55.810,11213.62039666667,0,-0.03842163,97.39133,192.168.1.101,100.78.239.175,2,1,0.36,0
2016-03-02 02:48:01.347,85,234B9614-18C8-49ED-8B56-CAB6C4F40872,my_iOS_device_1,1456908480.999984,40.79922742214128,-96.68578424499992,366.7826,0.27,292.1484375,4,7.862726247901607,-9999,1456908481.312613,15.63379383087158,42.79783630371094,-3.5391845703125,114.4519119262695,111.1747741699219,26,11214.77188366667,0.0750732421875,1.0101318359375,0.07672119140625,11214.75854166667,-0.002108690951124741,0.005312473742490064,-0.001099086581875702,11214.72352966667,0.7540548481128539,2.361262384237584,-1.462684489453657,0.01140348240733147,-0.02950895950198174,0.006042172200977802,0.003832298796623945,0.02080726623535156,0.004905277397483587,XArbitraryCorrectedZVertical,0.4895960177241145,-0.5464773310151454,0.4700745363198128,-0.4905998332846888,0.07591013610363007,0.9941616058349609,0.07668346911668777,15.02110004425049,42.25857162475586,-2.367662906646729,1,11214.37811766667,walking,0,2016-03-02 02:48:00.950,2016-03-02 02:47:07.556,27,16.04511,0,1,2016-03-02 02:47:55.810,11213.62039666667,0,-0.03842163,97.39133,192.168.1.101,100.78.239.175,2,1,0.36,0
2016-03-02 02:48:01.384,86,234B9614-18C8-49ED-8B56-CAB6C4F40872,my_iOS_device_1,1456908480.999984,40.79922742214128,-96.68578424499992,366.7826,0.27,292.1484375,4,7.862726247901607,-9999,1456908481.371359,15.356276512146,42.51939392089844,-3.5391845703125,114.418098449707,111.1409606933594,26,11214.80218166667,0.07861328125,1.006332397460938,0.065582275390625,11214.79355866667,0.003171292226066357,0.01276905847860292,0.002171008920632595,11214.75854166667,0.747673626188633,2.353985272284641,-1.463041190336344,0.01674141734838486,-0.02419080398976803,0.005051143933087587,-0.0007296115509234369,0.01645060442388058,-0.00318596139550209,XArbitraryCorrectedZVertical,0.489570016463994,-0.5461324154268026,0.4699900657201466,-0.4910905435089366,0.07621484249830246,0.9942000508308411,0.07587882876396179,15.04052352905273,42.25012969970703,-2.394901752471924,1,11214.37811766667,walking,0,2016-03-02 02:48:00.950,2016-03-02 02:47:07.556,27,16.04511,0,1,2016-03-02 02:47:55.810,11213.62039666667,0,-0.03842163,97.39133,192.168.1.101,100.78.239.175,2,1,0.36,0
2016-03-02 02:48:01.407,87,234B9614-18C8-49ED-8B56-CAB6C4F40872,my_iOS_device_1,1456908480.999984,40.79922742214128,-96.68578424499992,366.7826,0.27,292.1484375,4,7.862726247901607,-9999,1456908481.371359,15.356276512146,42.51939392089844,-3.5391845703125,114.418098449707,111.1409606933594,26,11214.83247066667,0.0834197998046875,1.009963989257812,0.0724334716796875,11214.79355866667,0.003171292226066357,0.01276905847860292,0.002171008920632595,11214.79355866667,0.7421740868037083,2.347896391634249,-1.463506873702729,0.02202173322439194,-0.01673392578959465,0.008320087566971779,-0.001790907583199441,0.01215868629515171,-0.002884117420762777,XArbitraryCorrectedZVertical,0.4895095080336589,-0.545824875940392,0.470021317609317,-0.4914627222303868,0.07634535431861877,0.9942499995231628,0.07508870959281921,15.04476070404053,42.24691390991211,-2.424786806106567,1,11214.37811766667,walking,0,2016-03-02 02:48:00.950,2016-03-02 02:47:07.556,27,16.04511,0,1,2016-03-02 02:47:55.810,11213.62039666667,0,-0.03842163,97.39133,192.168.1.101,100.78.239.175,2,1,0.36,0
2016-03-02 02:48:01.437,88,234B9614-18C8-49ED-8B56-CAB6C4F40872,my_iOS_device_1,1456908480.999984,40.79922742214128,-96.68578424499992,366.7826,0.27,292.1484375,4,7.862726247901607,-9999,1456908481.430217,15.356276512146,42.79783630371094,-3.86968994140625,114.3815536499023,111.1044158935547,26,11214.86277666667,0.0819091796875,1.005691528320312,0.0727081298828125,11214.82856966667,-0.004155596564959643,0.01486683046925834,-0.006462426701186279,11214.82856966667,0.7332611726513459,2.33849734366979,-1.464120233592703,0.01469801738858223,-0.01463630236685276,-0.0003126142546534538,0.005544384475797415,0.01454985700547695,-0.007034504786133766,XArbitraryCorrectedZVertical,0.4893015863123986,-0.5454870347530775,0.4701373637271282,-0.4919336457045515,0.07660893350839615,0.994315505027771,0.07394429296255112,15.04756546020508,42.24323654174805,-2.471047401428223,1,11214.37811766667,walking,0,2016-03-02 02:48:00.950,2016-03-02 02:47:07.556,27,16.04511,0,1,2016-03-02 02:47:55.810,11213.62039666667,0,-0.03842163,97.39133,192.168.1.101,100.78.239.175,2,1,0.36,0
2016-03-02 02:48:01.467,89,234B9614-18C8-49ED-8B56-CAB6C4F40872,my_iOS_device_1,1456908480.999984,40.79922742214128,-96.68578424499992,366.7826,0.27,292.1484375,4,7.862726247901607,-9999,1456908481.430217,15.356276512146,42.79783630371094,-3.86968994140625,114.3815536499023,111.1044158935547,26,11214.89307066667,0.087738037109375,1.0079345703125,0.068511962890625,11214.86358066667,-0.01050270839094549,0.0222999793877785,-0.008689894636928553,11214.86358066667,0.728757612357623,2.333666123718882,-1.46412580247569,0.008350766263902187,-0.007203101646155119,-0.002537746448069811,0.004947900772094727,0.01137543562799692,-0.0008613626705482602,XArbitraryCorrectedZVertical,0.489209097082394,-0.5453982082922075,0.4700655719115819,-0.4921926572257208,0.07696127891540527,0.9943161010742188,0.07356949150562286,15.05272960662842,42.2392463684082,-2.507472991943359,1,11214.37811766667,walking,0,2016-03-02 02:48:00.950,2016-03-02 02:47:07.556,27,16.04511,0,1,2016-03-02 02:47:55.810,11213.62039666667,0,-0.03842163,97.39133,192.168.1.101,100.78.239.175,2,1,0.36,0
2016-03-02 02:48:01.497,90,234B9614-18C8-49ED-8B56-CAB6C4F40872,my_iOS_device_1,1456908480.999984,40.79922742214128,-96.68578424499992,366.7826,0.27,292.1484375,4,7.862726247901607,-9999,1456908481.488634,15.28689765930176,42.867431640625,-3.935791015625,114.344352722168,111.0672149658203,26,11214.92337366667,0.084808349609375,1.01239013671875,0.065093994140625,11214.89857666667,-0.02966228822130255,0.004207794522325196,-0.008958873907026557,11214.89857666667,0.7268847837405067,2.331284531481746,-1.463988611649362,-0.01080750674009323,-0.02529542148113251,-0.002804305637255311,0.01050293538719416,0.01363309379667044,-0.004968055058270693,XArbitraryCorrectedZVertical,0.4892542998965045,-0.5453166409665674,0.4698937354996293,-0.4924021409944573,0.07723510265350342,0.9943014979362488,0.07348001748323441,15.07828330993652,42.22719955444336,-2.556396484375,1,11214.37811766667,walking,0,2016-03-02 02:48:00.950,2016-03-02 02:47:07.556,27,16.04511,0,1,2016-03-02 02:47:55.810,11213.62039666667,0,-0.03842163,97.39133,192.168.1.101,100.78.239.175,2,1,0.36,0
2016-03-02 02:48:01.545,91,234B9614-18C8-49ED-8B56-CAB6C4F40872,my_iOS_device_1,1456908480.999984,40.79922742214128,-96.68578424499992,366.7826,0.27,292.1484375,4,7.862726247901607,-9999,1456908481.488634,15.28689765930176,42.867431640625,-3.935791015625,114.344352722168,111.0672149658203,26,11214.95367766667,0.0818939208984375,1.012161254882812,0.0645294189453125,11214.93360666667,-0.02667395516212464,0.007441404717899407,0.006003297729256619,11214.89857666667,0.7268847837405067,2.331284531481746,-1.463988611649362,-0.01080750674009323,-0.02529542148113251,-0.002804305637255311,0.01050293538719416,0.01363309379667044,-0.004968055058270693,XArbitraryCorrectedZVertical,0.4892542998965045,-0.5453166409665674,0.4698937354996293,-0.4924021409944573,0.07723510265350342,0.9943014979362488,0.07348001748323441,15.07828330993652,42.22719955444336,-2.556396484375,1,11214.37811766667,walking,0,2016-03-02 02:48:00.950,2016-03-02 02:47:07.556,27,16.04511,0,1,2016-03-02 02:47:55.810,11214.93121766667,0,-0.04776001,97.39145,192.168.1.101,100.78.239.175,2,1,0.36,0
2016-03-02 02:48:01.557,92,234B9614-18C8-49ED-8B56-CAB6C4F40872,my_iOS_device_1,1456908480.999984,40.79922742214128,-96.68578424499992,366.7826,0.27,292.1484375,4,7.862726247901607,-9999,1456908481.548828,15.35627937316895,43.00666809082031,-4.00189208984375,114.3066329956055,111.0294952392578,26,11214.98398166667,0.08184814453125,1.004409790039062,0.0555877685546875,11214.96859166667,-0.01813612702343961,0.006378537126848783,0.003996339531772905,11214.93360666667,0.7213508860475577,2.324944330939517,-1.463570551605359,-0.007815769873559475,-0.02206218801438808,0.01216146536171436,0.006912774406373501,0.01688209362328053,-0.01278761308640242,XArbitraryCorrectedZVertical,0.489222508665491,-0.5452504594149913,0.4695527170312565,-0.4928321412523223,0.07800238579511642,0.9942567944526672,0.07327345013618469,15.09136390686035,42.22232818603516,-2.559675455093384,1,11214.37811766667,walking,0,2016-03-02 02:48:00.950,2016-03-02 02:47:07.556,27,16.04511,0,1,2016-03-02 02:47:55.810,11214.93121766667,0,-0.04776001,97.39145,192.168.1.101,100.78.239.175,2,1,0.36,0
2016-03-02 02:48:01.588,93,234B9614-18C8-49ED-8B56-CAB6C4F40872,my_iOS_device_1,1456908480.999984,40.79922742214128,-96.68578424499992,366.7826,0.27,292.1484375,4,7.862726247901607,-9999,1456908481.548828,15.35627937316895,43.00666809082031,-4.00189208984375,114.3066329956055,111.0294952392578,26,11215.01427466667,0.07733154296875,1.0086669921875,0.059814453125,11215.00361166667,-0.0265650318735404,0.01592810016365492,-0.001459678593472431,11214.96859166667,0.7137664319191237,2.316477226015534,-1.46345588803135,0.0007260045385919511,-0.02312533557415009,0.01015551015734673,0.002335681114345789,0.01492598745971918,-0.01328526251018047,XArbitraryCorrectedZVertical,0.4891389198976361,-0.5450568606891049,0.4693096887377026,-0.4933604683332786,0.07870374619960785,0.9942445158958435,0.07268773019313812,15.12038993835449,42.21025466918945,-2.587411642074585,1,11214.37811766667,walking,0,2016-03-02 02:48:00.950,2016-03-02 02:47:07.556,27,16.04511,0,1,2016-03-02 02:47:55.810,11214.93121766667,0,-0.04776001,97.39145,192.168.1.101,100.78.239.175,2,1,0.36,0
2016-03-02 02:48:01.625,94,234B9614-18C8-49ED-8B56-CAB6C4F40872,my_iOS_device_1,1456908480.999984,40.79922742214128,-96.68578424499992,366.7826,0.27,292.1484375,4,7.862726247901607,-9999,1456908481.607113,15.46034717559814,43.18069458007812,-3.77056884765625,114.2668609619141,110.9897232055664,26,11215.04458966667,0.0777130126953125,1.013687133789062,0.0575103759765625,11215.00361166667,-0.0265650318735404,0.01592810016365492,-0.001459678593472431,11215.00361166667,0.7058650817221197,2.307871670787507,-1.463676027849566,-0.007697322405874729,-0.01357623282819986,0.004700554069131613,0.00758193526417017,0.009470297954976559,-0.01341948192566633,XArbitraryCorrectedZVertical,0.4890128255081712,-0.5447905824419995,0.4692359535251091,-0.4938494686545722,0.0791642814874649,0.9942681193351746,0.07186064124107361,15.1312894821167,42.20477294921875,-2.61298131942749,1,11214.37811766667,walking,0,2016-03-02 02:48:00.950,2016-03-02 02:47:07.556,27,16.04511,0,1,2016-03-02 02:47:55.810,11214.93121766667,0,-0.04776001,97.39145,192.168.1.101,100.78.239.175,2,1,0.36,0
2016-03-02 02:48:01.648,95,234B9614-18C8-49ED-8B56-CAB6C4F40872,my_iOS_device_1,1456908480.999984,40.79922742214128,-96.68578424499992,366.7826,0.27,292.1484375,4,7.862726247901607,-9999,1456908481.607113,15.46034717559814,43.18069458007812,-3.77056884765625,114.2668609619141,110.9897232055664,26,11215.07489366667,0.0830535888671875,1.012100219726562,0.0594329833984375,11215.03864566667,-0.01583169373219405,0.02761591523968567,-0.007704258717490228,11215.03864566667,0.7013815743169751,2.303257292842465,-1.464413944965016,0.003103958675637841,-0.001856314949691296,-0.001542519661597908,-0.002228296129032969,0.01900471188127995,-0.01788810454308987,XArbitraryCorrectedZVertical,0.4889016934552997,-0.5444971155940397,0.4694850918985828,-0.4940463275152345,0.07894948869943619,0.9943467378616333,0.07100395113229752,15.14617919921875,42.19655227661133,-2.659003019332886,1,11214.37811766667,walking,0,2016-03-02 02:48:00.950,2016-03-02 02:47:07.556,27,16.04511,0,1,2016-03-02 02:47:55.810,11214.93121766667,0,-0.04776001,97.39145,192.168.1.101,100.78.239.175,2,1,0.36,0
2016-03-02 02:48:01.682,96,234B9614-18C8-49ED-8B56-CAB6C4F40872,my_iOS_device_1,1456908480.999984,40.79922742214128,-96.68578424499992,366.7826,0.27,292.1484375,4,7.862726247901607,-9999,1456908481.66543,15.84193325042725,43.07627868652344,-4.00189208984375,114.2256317138672,110.9484939575195,26,11215.10516766667,0.0861968994140625,1.009445190429688,0.058502197265625,11215.07365766667,-0.01482981253010624,0.02337483120373448,-0.003424558845732892,11215.07365766667,0.6963739446433521,2.298052287724745,-1.464950847610641,0.004109125584363937,-0.006097543984651566,0.002736353315412998,0.0009605794330127537,0.01879525743424892,-0.006470640655606985,XArbitraryCorrectedZVertical,0.4887811847364023,-0.5442531703291494,0.4696464819762102,-0.4942809140577022,0.0789191797375679,0.994403600692749,0.07023712247610092,15.13803482055664,42.19828796386719,-2.67781138420105,1,11214.37811766667,walking,0,2016-03-02 02:48:00.950,2016-03-02 02:47:07.556,27,16.04511,0,1,2016-03-02 02:47:55.810,11214.93121766667,0,-0.04776001,97.39145,192.168.1.101,100.78.239.175,2,1,0.36,0
2016-03-02 02:48:01.709,97,234B9614-18C8-49ED-8B56-CAB6C4F40872,my_iOS_device_1,1456908480.999984,40.79922742214128,-96.68578424499992,366.7826,0.27,292.1484375,4,7.862726247901607,-9999,1456908481.66543,15.84193325042725,43.07627868652344,-4.00189208984375,114.2256317138672,110.9484939575195,26,11215.13547166667,0.0840606689453125,1.000701904296875,0.06219482421875,11215.10867266667,-0.01904692811624671,0.01485564519268001,-0.006678675381700714,11215.10867266667,0.6883734440245181,2.289607257455268,-1.46536380709324,-0.0001027767575578764,-0.01461704913526773,-0.000515724706929177,0.006996441166847944,0.01499805226922035,-0.01079553738236427,XArbitraryCorrectedZVertical,0.4886044904247397,-0.5439802562464461,0.4697119366090818,-0.4946936722435178,0.07920046150684357,0.9944471120834351,0.06929773092269897,15.13562774658203,42.1943244934082,-2.752752542495728,1,11214.37811766667,walking,0,2016-03-02 02:48:00.950,2016-03-02 02:47:07.556,27,16.04511,0,1,2016-03-02 02:47:55.810,11214.93121766667,0,-0.04776001,97.39145,192.168.1.101,100.78.239.175,2,1,0.36,0
2016-03-02 02:48:01.740,98,234B9614-18C8-49ED-8B56-CAB6C4F40872,my_iOS_device_1,1456908480.999984,40.79922742214128,-96.68578424499992,366.7826,0.27,292.1484375,4,7.862726247901607,-9999,1456908481.72424,15.46034717559814,42.76300048828125,-3.7044677734375,114.1848449707031,110.9077072143555,26,11215.16579466667,0.0818023681640625,1.005828857421875,0.06787109375,11215.14367166667,-0.02972593777135545,0.01698324458754431,-0.003637611732939232,11215.14367166667,0.6847018483505857,2.285445171183721,-1.465227506394888,-0.01078002154827118,-0.01248947624117136,0.002527059055864811,0.004470095504075289,0.006269118748605251,-0.006861499976366758,XArbitraryCorrectedZVertical,0.4885774626978822,-0.5438935788793547,0.4695537875564656,-0.4949657345603671,0.0795905739068985,0.994432806968689,0.06905632466077805,15.15161895751953,42.18642044067383,-2.785762071609497,1,11214.37811766667,walking,0,2016-03-02 02:48:00.950,2016-03-02 02:47:07.556,27,16.04511,0,1,2016-03-02 02:47:55.810,11214.93121766667,0,-0.04776001,97.39145,192.168.1.101,100.78.239.175,2,1,0.36,0
2016-03-02 02:48:01.784,99,234B9614-18C8-49ED-8B56-CAB6C4F40872,my_iOS_device_1,1456908480.999984,40.79922742214128,-96.68578424499992,366.7826,0.27,292.1484375,4,7.862726247901607,-9999,1456908481.782903,15.356276512146,42.72817993164062,-3.5391845703125,114.1440048217773,110.8668670654297,26,11215.19609566667,0.071868896484375,1.010101318359375,0.072967529296875,11215.17869266667,-0.03921930810916091,0.02546860845275478,-0.00910854356028901,11215.14367166667,0.6847018483505857,2.285445171183721,-1.465227506394888,-0.01078002154827118,-0.01248947624117136,0.002527059055864811,0.004470095504075289,0.006269118748605251,-0.006861499976366758,XArbitraryCorrectedZVertical,0.4885774626978822,-0.5438935788793547,0.4695537875564656,-0.4949657345603671,0.0795905739068985,0.994432806968689,0.06905632466077805,15.15161895751953,42.18642044067383,-2.785762071609497,1,11214.37811766667,walking,0,2016-03-02 02:48:00.950,2016-03-02 02:47:07.556,27,16.04511,0,1,2016-03-02 02:47:55.810,11214.93121766667,0,-0.04776001,97.39145,192.168.1.101,100.78.239.175,2,1,0.36,0
2016-03-02 02:48:01.801,100,234B9614-18C8-49ED-8B56-CAB6C4F40872,my_iOS_device_1,1456908480.999984,40.79922742214128,-96.68578424499992,366.7826,0.27,292.1484375,4,7.862726247901607,-9999,1456908481.782903,15.356276512146,42.72817993164062,-3.5391845703125,114.1440048217773,110.8668670654297,26,11215.22639766667,0.080535888671875,1.009109497070312,0.065948486328125,11215.17869266667,-0.03921930810916091,0.02546860845275478,-0.00910854356028901,11215.17869266667,0.6889672036963308,2.289479805827839,-1.464961289037013,-0.02027272246778011,-0.004003961570560932,-0.0029440822545439,-0.004574652295559645,0.01826009713113308,-0.001008697669021785,XArbitraryCorrectedZVertical,0.4887790754112906,-0.5439398905119903,0.4693868719476302,-0.4948741005479139,0.07951056212186813,0.994404673576355,0.06955117732286453,15.15808391571045,42.1840705871582,-2.786171674728394,1,11214.37811766667,walking,0,2016-03-02 02:48:00.950,2016-03-02 02:47:07.556,27,16.04511,0,1,2016-03-02 02:47:55.810,11214.93121766667,0,-0.04776001,97.39145,192.168.1.101,100.78.239.175,2,1,0.36,0
2016-03-02 02:48:01.831,101,234B9614-18C8-49ED-8B56-CAB6C4F40872,my_iOS_device_1,1456908480.999984,40.79922742214128,-96.68578424499992,366.7826,0.27,292.1484375,4,7.862726247901607,-9999,1456908481.782903,15.356276512146,42.72817993164062,-3.5391845703125,114.1440048217773,110.8668670654297,26,11215.25669766667,0.0805816650390625,1.0093994140625,0.07928466796875,11215.21371266667,-0.04133199380192077,0.02546408107890165,-0.01020496698107463,11215.21371266667,0.6968768414968801,2.297277540993803,-1.464913012446331,-0.02235116250813007,-0.003985085524618626,-0.00404268316924572,-0.009192737750709057,0.01484722923487425,0.000721904041711241,XArbitraryCorrectedZVertical,0.4890983877579574,-0.5439515059847239,0.4693189224019813,-0.494610225637279,0.07900169491767883,0.9943996071815491,0.07020094990730286,15.15551471710205,42.18582153320312,-2.77362585067749,1,11214.37811766667,walking,0,2016-03-02 02:48:00.950,2016-03-02 02:47:07.556,27,16.04511,0,1,2016-03-02 02:47:55.810,11214.93121766667,0,-0.04776001,97.39145,192.168.1.101,100.78.239.175,2,1,0.36,0
2016-03-02 02:48:01.873,102,234B9614-18C8-49ED-8B56-CAB6C4F40872,my_iOS_device_1,1456908480.999984,40.79922742214128,-96.68578424499992,366.7826,0.27,292.1484375,4,7.862726247901607,-9999,1456908481.843322,14.90530872344971,42.97183227539062,-3.6383056640625,114.1031799316406,110.826042175293,26,11215.28699866667,0.0772857666015625,1.014984130859375,0.06842041015625,11215.28373466667,-0.03705229393016343,0.03928855029750297,-0.0112156366147597,11215.24872266667,0.7034492058288543,2.303745621797305,-1.464471909450596,-0.02555452659726143,-0.001857594354078174,-0.003024408360943198,0.005570170003920794,0.01507704984396696,0.005564671941101551,XArbitraryCorrectedZVertical,0.4893519533320521,-0.544092484348339,0.469114783936766,-0.4943979710089011,0.0788719654083252,0.9943528771400452,0.07100392878055573,15.1197681427002,42.20163345336914,-2.727781534194946,1,11214.37811766667,walking,0,2016-03-02 02:48:00.950,2016-03-02 02:47:07.556,27,16.04511,0,1,2016-03-02 02:47:55.810,11214.93121766667,0,-0.04776001,97.39145,192.168.1.101,100.78.239.175,2,1,0.36,0
2016-03-02 02:48:01.891,103,234B9614-18C8-49ED-8B56-CAB6C4F40872,my_iOS_device_1,1456908480.999984,40.79922742214128,-96.68578424499992,366.7826,0.27,292.1484375,4,7.862726247901607,-9999,1456908481.843322,14.90530872344971,42.97183227539062,-3.6383056640625,114.1031799316406,110.826042175293,26,11215.31729966667,0.076385498046875,1.006515502929688,0.0751495361328125,11215.28373466667,-0.03705229393016343,0.03928855029750297,-0.0112156366147597,11215.28373466667,0.7108454198085508,2.311300244832663,-1.464109083333023,-0.01807200536131859,0.009839832782745361,-0.005053837783634663,-0.0009323738631792367,0.01792323589324951,-0.0008725169464014471,XArbitraryCorrectedZVertical,0.4895797374113286,-0.5442722233883565,0.4690031608307095,-0.4940804212827628,0.07859960943460464,0.9943143129348755,0.07184114307165146,15.11631488800049,42.20589065551758,-2.680675745010376,1,11214.37811766667,walking,0,2016-03-02 02:48:00.950,2016-03-02 02:47:07.556,27,16.04511,0,1,2016-03-02 02:47:55.810,11214.93121766667,0,-0.04776001,97.39145,192.168.1.101,100.78.239.175,2,1,0.36,0
2016-03-02 02:48:01.922,104,234B9614-18C8-49ED-8B56-CAB6C4F40872,my_iOS_device_1,1456908480.999984,40.79922742214128,-96.68578424499992,366.7826,0.27,292.1484375,4,7.862726247901607,-9999,1456908481.903361,15.28689479827881,43.2154541015625,-3.14263916015625,114.0635070800781,110.7863693237305,26,11215.34758466667,0.0709991455078125,1.009552001953125,0.091400146484375,11215.31874966667,-0.02323368366596028,0.04674566766583384,-0.009953031941953136,11215.28373466667,0.7108454198085508,2.311300244832663,-1.464109083333023,-0.01807200536131859,0.009839832782745361,-0.005053837783634663,-0.0009323738631792367,0.01792323589324951,-0.0008725169464014471,XArbitraryCorrectedZVertical,0.4895797374113286,-0.5442722233883565,0.4690031608307095,-0.4940804212827628,0.07859960943460464,0.9943143129348755,0.07184114307165146,15.11631488800049,42.20589065551758,-2.680675745010376,1,11214.37811766667,walking,0,2016-03-02 02:48:00.950,2016-03-02 02:47:07.556,27,16.04511,0,1,2016-03-02 02:47:55.810,11214.93121766667,0,-0.04776001,97.39145,192.168.1.101,100.78.239.175,2,1,0.36,0
2016-03-02 02:48:01.952,105,234B9614-18C8-49ED-8B56-CAB6C4F40872,my_iOS_device_1,1456908480.999984,40.79922742214128,-96.68578424499992,366.7826,0.27,292.1484375,4,7.862726247901607,-9999,1456908481.903361,15.28689479827881,43.2154541015625,-3.14263916015625,114.0635070800781,110.7863693237305,26,11215.37790266667,0.08245849609375,1.00762939453125,0.0785980224609375,11215.35376166667,-0.02852192264253062,0.04779921419306919,-0.01216185775006486,11215.31874966667,0.7127746859731382,2.313783164938284,-1.464182832716059,-0.004252062644809484,0.01729706674814224,-0.003792117349803448,-0.00198149005882442,0.01219334080815315,0.003163063665851951,XArbitraryCorrectedZVertical,0.4895249628038796,-0.5443882319012202,0.4691614120331907,-0.4938565917534619,0.07836698740720749,0.9943221807479858,0.07198647409677505,15.10919570922852,42.2092170715332,-2.668415069580078,1,11214.37811766667,walking,0,2016-03-02 02:48:00.950,2016-03-02 02:47:07.556,27,16.04511,0,1,2016-03-02 02:47:55.810,11214.93121766667,0,-0.04776001,97.39145,192.168.1.101,100.78.239.175,2,1,0.36,0
2016-03-02 02:48:01.982,106,234B9614-18C8-49ED-8B56-CAB6C4F40872,my_iOS_device_1,1456908480.999984,40.79922742214128,-96.68578424499992,366.7826,0.27,292.1484375,4,7.862726247901607,-9999,1456908481.961071,15.18282604217529,42.76296997070312,-2.9774169921875,114.0254440307617,110.7483062744141,26,11215.40819566667,0.087371826171875,1.001007080078125,0.07958984375,11215.38877266667,-0.03930239873517138,0.03186658665556114,-0.002718554840752886,11215.35376166667,0.7251357916471641,2.326950541542032,-1.4638181689318,-0.009545125067234039,0.01835124380886555,-0.00600300170481205,-0.006676977500319481,0.0152687095105648,0.01813927665352821,XArbitraryCorrectedZVertical,0.4897903444749828,-0.544734663688629,0.469201452586995,-0.4931729529539986,0.07767612487077713,0.9942833185195923,0.07326087355613708,15.09818458557129,42.21493911743164,-2.640078067779541,1,11214.37811766667,walking,0,2016-03-02 02:48:00.950,2016-03-02 02:47:07.556,27,16.04511,0,1,2016-03-02 02:47:55.810,11214.93121766667,0,-0.04776001,97.39145,192.168.1.101,100.78.239.175,2,1,0.36,0
2016-03-02 02:48:02.025,107,234B9614-18C8-49ED-8B56-CAB6C4F40872,my_iOS_device_1,1456908480.999984,40.79922742214128,-96.68578424499992,366.7826,0.27,292.1484375,4,7.862726247901607,-9999,1456908482.022078,15.14813709259033,42.86738586425781,-3.20867919921875,113.9906387329102,110.7135009765625,26,11215.43850066667,0.0858306884765625,1.00909423828125,0.0802764892578125,11215.42378966667,-0.04775287519010181,0.012704343664114,-0.008160191896111793,11215.38877266667,0.7303089129151025,2.332508551559999,-1.463072948987575,-0.02031056769192219,0.002460295334458351,0.003434680169448256,0.00541751692071557,0.01135075371712446,0.006058407481759787,XArbitraryCorrectedZVertical,0.4898752377511666,-0.5450905089417624,0.4690144525285542,-0.4928732411271567,0.07780391722917557,0.9942034482955933,0.07420282065868378,15.08132648468018,42.22370147705078,-2.595923185348511,1,11214.37811766667,walking,0,2016-03-02 02:48:00.950,2016-03-02 02:47:07.556,27,16.04511,0,1,2016-03-02 02:47:55.810,11214.93121766667,0,-0.04776001,97.39145,192.168.1.101,100.78.239.175,2,1,0.36,0
2016-03-02 02:48:02.043,108,234B9614-18C8-49ED-8B56-CAB6C4F40872,my_iOS_device_1,1456908480.999984,40.79922742214128,-96.68578424499992,366.7826,0.27,292.1484375,4,7.862726247901607,-9999,1456908482.022078,15.14813709259033,42.86738586425781,-3.20867919921875,113.9906387329102,110.7135009765625,26,11215.46880266667,0.07464599609375,1.007553100585938,0.0814971923828125,11215.42378966667,-0.04775287519010181,0.012704343664114,-0.008160191896111793,11215.42378966667,0.734974658508443,2.336775615519346,-1.461965223255723,-0.02876297011971474,-0.01670174673199654,-0.002004255540668964,0.01202126313000917,0.01060071028769016,0.006474283989518881,XArbitraryCorrectedZVertical,0.4901178068698306,-0.5453744757361798,0.4685041319809712,-0.4928033024659536,0.0782802477478981,0.9940837621688843,0.07529756426811218,15.1006031036377,42.22127151489258,-2.522338151931763,1,11214.37811766667,walking,0,2016-03-02 02:48:00.950,2016-03-02 02:47:07.556,27,16.04511,0,1,2016-03-02 02:47:55.810,11214.93121766667,0,-0.04776001,97.39145,192.168.1.101,100.78.239.175,2,1,0.36,0
2016-03-02 02:48:02.073,109,234B9614-18C8-49ED-8B56-CAB6C4F40872,my_iOS_device_1,1456908482.000005,40.79922922425046,-96.68578416118089,366.6438,0.41,299.1796875,4,7.68940736849324,-9999,1456908482.022078,15.14813709259033,42.86738586425781,-3.20867919921875,113.9906387329102,110.7135009765625,26,11215.49910566667,0.07098388671875,1.010513305664062,0.0861358642578125,11215.45879366667,-0.04356398911151618,0.003148655356800683,-0.003831489860297,11215.45879366667,0.7416578982852406,2.342593721887954,-1.46088678595306,-0.02457631751894951,-0.02625707536935806,0.002325817244127393,-0.0006519382004626095,0.01509769633412361,0.006218528375029564,XArbitraryCorrectedZVertical,0.4905518899568781,-0.5455350830761656,0.4678883375094973,-0.4927786724437389,0.07860909402370453,0.9939660429954529,0.07649936527013779,15.11158466339111,42.21880722045898,-2.497645378112793,1,11214.37811766667,walking,0,2016-03-02 02:48:00.950,2016-03-02 02:47:07.556,27,16.04511,0,1,2016-03-02 02:47:55.810,11214.93121766667,0,-0.04776001,97.39145,192.168.1.101,100.78.239.175,2,1,0.36,0
2016-03-02 02:48:02.105,110,234B9614-18C8-49ED-8B56-CAB6C4F40872,my_iOS_device_1,1456908482.000005,40.79922922425046,-96.68578416118089,366.6438,0.41,299.1796875,4,7.68940736849324,-9999,1456908482.077117,14.97468757629395,42.90220642089844,-2.9112548828125,113.9561614990234,110.6790237426758,26,11215.52941066667,0.076080322265625,1.011184692382812,0.093048095703125,11215.49381066667,-0.04982241767320239,0.01162762763539496,-0.01245267494110151,11215.49381066667,0.7531535667458239,2.353343354786794,-1.460357819711811,-0.03083622083067894,-0.01777762733399868,-0.006297769956290722,-0.007125388830900192,0.01337057817727327,0.007112951949238777,XArbitraryCorrectedZVertical,0.4911622970698281,-0.5455409481248809,0.4675008275262416,-0.4925318752308065,0.07815504819154739,0.9939078688621521,0.07771065831184387,15.11757469177246,42.2180290222168,-2.474560499191284,1,11214.37811766667,walking,0,2016-03-02 02:48:00.950,2016-03-02 02:47:07.556,27,16.04511,0,1,2016-03-02 02:47:55.810,11214.93121766667,0,-0.04776001,97.39145,192.168.1.101,100.78.239.175,2,1,0.36,0
2016-03-02 02:48:02.134,111,234B9614-18C8-49ED-8B56-CAB6C4F40872,my_iOS_device_1,1456908482.000005,40.79922922425046,-96.68578416118089,366.6438,0.41,299.1796875,4,7.68940736849324,-9999,1456908482.077117,14.97468757629395,42.90220642089844,-2.9112548828125,113.9561614990234,110.6790237426758,26,11215.55970966667,0.076904296875,1.008071899414062,0.08575439453125,11215.52880766667,-0.03822142164870822,0.01591052330046039,-0.004826180527441596,11215.49381066667,0.7531535667458239,2.353343354786794,-1.460357819711811,-0.03083622083067894,-0.01777762733399868,-0.006297769956290722,-0.007125388830900192,0.01337057817727327,0.007112951949238777,XArbitraryCorrectedZVertical,0.4911622970698281,-0.5455409481248809,0.4675008275262416,-0.4925318752308065,0.07815504819154739,0.9939078688621521,0.07771065831184387,15.11757469177246,42.2180290222168,-2.474560499191284,1,11214.37811766667,walking,0,2016-03-02 02:48:00.950,2016-03-02 02:47:07.556,27,16.04511,0,1,2016-03-02 02:47:55.810,11214.93121766667,0,-0.04776001,97.39145,192.168.1.101,100.78.239.175,2,1,0.36,0
