loggingTime,loggingSample,identifierForVendor,deviceID,locationTimestamp_since1970,locationLatitude,locationLongitude,locationAltitude,locationSpeed,locationCourse,locationVerticalAccuracy,locationHorizontalAccuracy,locationFloor,locationHeadingTimestamp_since1970,locationHeadingX,locationHeadingY,locationHeadingZ,locationTrueHeading,locationMagneticHeading,locationHeadingAccuracy,accelerometerTimestamp_sinceReboot,accelerometerAccelerationX,accelerometerAccelerationY,accelerometerAccelerationZ,gyroTimestamp_sinceReboot,gyroRotationX,gyroRotationY,gyroRotationZ,motionTimestamp_sinceReboot,motionYaw,motionRoll,motionPitch,motionRotationRateX,motionRotationRateY,motionRotationRateZ,motionUserAccelerationX,motionUserAccelerationY,motionUserAccelerationZ,motionAttitudeReferenceFrame,motionQuaternionX,motionQuaternionY,motionQuaternionZ,motionQuaternionW,motionGravityX,motionGravityY,motionGravityZ,motionMagneticFieldX,motionMagneticFieldY,motionMagneticFieldZ,motionMagneticFieldCalibrationAccuracy,activityTimestamp_sinceReboot,activity,activityActivityConfidence,activityActivityStartDate,pedometerStartDate,pedometerNumberofSteps,pedometerDistance,pedometerFloorAscended,pedometerFloorDescended,pedometerEndDate,altimeterTimestamp_sinceReboot,altimeterReset,altimeterRelativeAltitude,altimeterPressure,IP_en0,IP_pdp_ip0,deviceOrientation,batteryState,batteryLevel,state
2016-03-02 02:49:35.275,1,234B9614-18C8-49ED-8B56-CAB6C4F40872,my_iOS_device_1,1456908575.000027,40.79923299610689,-96.68577326470677,364.9411,0.21,285.1171875,4,13.3795227486067,-9999,1456908575.22313,3.83479118347168,31.44795227050781,-21.1273193359375,181.2410583496094,177.9639282226562,25,11308.69429475,0.05859375,1.015609741210938,0.0670318603515625,11308.66140875,-0.04344574475911666,0.1020360876891869,-0.007077616912994584,11308.66140875,1.10841432839507,2.446011748574587,-1.467504792295887,-0.02378006465733051,0.07249146699905396,-0.001196350320242345,-0.01822326704859734,0.01024315971881151,-0.02184206992387772,XArbitraryCorrectedZVertical,-0.5615144046760512,0.473580630705148,-0.4021247441479376,0.5465515983932051,0.06607482582330704,0.9946701526641846,0.07915408164262772,2.783892631530762,31.7969856262207,-20.07955932617188,1,11297.12598891667,walking,0,2016-03-02 02:49:23.682,2016-03-02 02:47:07.556,112,75.83226,3,3,2016-03-02 02:49:31.468,11308.18467375,0,0.834259,97.38119,192.168.1.101,100.78.239.175,2,1,0.35,0
2016-03-02 02:49:35.307,2,234B9614-18C8-49ED-8B56-CAB6C4F40872,my_iOS_device_1,1456908575.000027,40.79923299610689,-96.68577326470677,364.9411,0.21,285.1171875,4,13.3795227486067,-9999,1456908575.283801,4.0423583984375,31.51753234863281,-21.2596435546875,181.4479064941406,178.1707763671875,25,11308.72459375,0.0571441650390625,1.012222290039062,0.0758056640625,11308.69642375,0.04482393062323266,0.102105329877529,-0.004730040412089735,11308.69642375,1.110486057470501,2.450610424773356,-1.469119687023703,0.06448882073163986,0.0725603923201561,0.001149636111222208,-0.006092614028602839,0.0207743588835001,-0.01118729822337627,XArbitraryCorrectedZVertical,-0.5609840603862969,0.4737155931900438,-0.4034254173961935,0.5460204697260107,0.0646863654255867,0.994835376739502,0.07821916043758392,2.781830310821533,31.79218482971191,-20.08744430541992,1,11297.12598891667,walking,0,2016-03-02 02:49:23.682,2016-03-02 02:47:07.556,112,75.83226,3,3,2016-03-02 02:49:31.468,11308.18467375,0,0.834259,97.38119,192.168.1.101,100.78.239.175,2,1,0.35,0
2016-03-02 02:49:35.336,3,234B9614-18C8-49ED-8B56-CAB6C4F40872,my_iOS_device_1,1456908575.000027,40.79923299610689,-96.68577326470677,364.9411,0.21,285.1171875,4,13.3795227486067,-9999,1456908575.283801,4.0423583984375,31.51753234863281,-21.2596435546875,181.4479064941406,178.1707763671875,25,11308.75487275,0.061370849609375,1.006423950195312,0.0715484619140625,11308.73141775,0.02905508749276449,0.1158823948287269,-0.01775502867144927,11308.73141775,1.101146159418837,2.444183149539783,-1.471155222503684,0.04872015863656998,0.08633754402399063,-0.01187624782323837,-0.006742922589182854,0.01718235947191715,-0.0004437674360815436,XArbitraryCorrectedZVertical,-0.5599517125419528,0.4738974523840999,-0.4048998229438105,0.5458309423486936,0.0638870894908905,0.9950399398803711,0.07624942809343338,2.814493656158447,31.75777435302734,-20.13726234436035,1,11297.12598891667,walking,0,2016-03-02 02:49:23.682,2016-03-02 02:47:07.556,112,75.83226,3,3,2016-03-02 02:49:31.468,11308.18467375,0,0.834259,97.38119,192.168.1.101,100.78.239.175,2,1,0.35,0
2016-03-02 02:49:35.386,4,234B9614-18C8-49ED-8B56-CAB6C4F40872,my_iOS_device_1,1456908575.000027,40.79923299610689,-96.68577326470677,364.9411,0.21,285.1171875,4,13.3795227486067,-9999,1456908575.344285,4.388307094573975,31.51753234863281,-21.656494140625,181.7014465332031,178.42431640625,25,11308.78517375,0.074981689453125,1.018661499023438,0.0685272216796875,11308.76642075,0.03953569164666233,0.1031588764047643,-0.006938866220201455,11308.76642075,1.090583653499799,2.436599657093318,-1.472973300691543,0.05920075625181198,0.07361426204442978,-0.001060231355950236,0.005449791438877583,0.01381406094878912,-0.006590022705495358,XArbitraryCorrectedZVertical,-0.5588851107466181,0.4741727999384421,-0.4063101141202359,0.5456369488477462,0.06329105049371719,0.9952191710472107,0.07438482344150543,2.834926128387451,31.73693084716797,-20.167236328125,1,11297.12598891667,walking,0,2016-03-02 02:49:23.682,2016-03-02 02:47:07.556,112,75.83226,3,3,2016-03-02 02:49:31.468,11308.18467375,0,0.834259,97.38119,192.168.1.101,100.78.239.175,2,1,0.35,0
2016-03-02 02:49:35.405,5,234B9614-18C8-49ED-8B56-CAB6C4F40872,my_iOS_device_1,1456908575.000027,40.79923299610689,-96.68577326470677,364.9411,0.21,285.1171875,4,13.3795227486067,-9999,1456908575.393133,4.595874786376953,31.65669250488281,-21.3258056640625,181.9977264404297,178.7205963134766,25,11308.81545375,0.070098876953125,1.022796630859375,0.0389862060546875,11308.80146275,0.05345124097454436,0.1031516858698211,-0.0131312483868537,11308.76642075,1.090583653499799,2.436599657093318,-1.472973300691543,0.05920075625181198,0.07361426204442978,-0.001060231355950236,0.005449791438877583,0.01381406094878912,-0.006590022705495358,XArbitraryCorrectedZVertical,-0.5588851107466181,0.4741727999384421,-0.4063101141202359,0.5456369488477462,0.06329105049371719,0.9952191710472107,0.07438482344150543,2.834926128387451,31.73693084716797,-20.167236328125,1,11297.12598891667,walking,0,2016-03-02 02:49:23.682,2016-03-02 02:47:07.556,112,75.83226,3,3,2016-03-02 02:49:31.468,11308.18467375,0,0.834259,97.38119,192.168.1.101,100.78.239.175,2,1,0.35,0
2016-03-02 02:49:35.436,6,234B9614-18C8-49ED-8B56-CAB6C4F40872,my_iOS_device_1,1456908575.000027,40.79923299610689,-96.68577326470677,364.9411,0.21,285.1171875,4,13.3795227486067,-9999,1456908575.393133,4.595874786376953,31.65669250488281,-21.3258056640625,181.9977264404297,178.7205963134766,25,11308.84577775,0.0724334716796875,0.99945068359375,0.025360107421875,11308.83647375,0.07899548320225738,0.1052947315990079,-0.0138271323796914,11308.80146275,1.071328606417045,2.419914234018587,-1.474715883587106,0.07311706990003586,0.07360749691724777,-0.007252069190144539,0.007179135922342539,0.02420446090400219,-0.007654896937310696,XArbitraryCorrectedZVertical,-0.5576245218036788,0.4744081863642973,-0.4075303822941133,0.5458120124190832,0.0633775070309639,0.995387852191925,0.07201647013425827,2.92634654045105,31.66353988647461,-20.2692813873291,1,11297.12598891667,walking,0,2016-03-02 02:49:23.682,2016-03-02 02:47:07.556,112,75.83226,3,3,2016-03-02 02:49:31.468,11308.18467375,0,0.834259,97.38119,192.168.1.101,100.78.239.175,2,1,0.35,0
2016-03-02 02:49:35.467,7,234B9614-18C8-49ED-8B56-CAB6C4F40872,my_iOS_device_1,1456908575.000027,40.79923299610689,-96.68577326470677,364.9411,0.21,285.1171875,4,13.3795227486067,-9999,1456908575.451904,4.976420402526855,31.13497924804688,-21.8880615234375,182.3052673339844,179.0281372070312,25,11308.87607175,0.0778656005859375,1.006057739257812,0.0403900146484375,11308.87148375,0.0512109898655697,0.08934639141106836,-0.005696501571679491,11308.83647375,1.030181927623815,2.381454619418339,-1.478924484153658,0.09866564720869064,0.07575125992298126,-0.007948488928377628,0.003819197649136186,0.01115999929606915,-0.03993936255574226,XArbitraryCorrectedZVertical,-0.555550727109497,0.4739284947013982,-0.4095791985844529,0.5468089717671902,0.06321266293525696,0.995782732963562,0.06648965924978256,2.956333160400391,31.62199783325195,-20.32968711853027,1,11297.12598891667,walking,0,2016-03-02 02:49:23.682,2016-03-02 02:47:07.556,112,75.83226,3,3,2016-03-02 02:49:31.468,11308.18467375,0,0.834259,97.38119,192.168.1.101,100.78.239.175,2,1,0.35,0
2016-03-02 02:49:35.486,8,234B9614-18C8-49ED-8B56-CAB6C4F40872,my_iOS_device_1,1456908575.000027,40.79923299610689,-96.68577326470677,364.9411,0.21,285.1171875,4,13.3795227486067,-9999,1456908575.451904,4.976420402526855,31.13497924804688,-21.8880615234375,182.3052673339844,179.0281372070312,25,11308.90636575,0.0718994140625,1.016204833984375,0.053619384765625,11308.87148375,0.0512109898655697,0.08934639141106836,-0.005696501571679491,11308.87148375,0.9855540332566047,2.338999802957381,-1.48212554200117,0.07088492810726166,0.05980367213487625,0.00018285121768713,0.01556918770074844,0.003303068457171321,-0.02864899858832359,XArbitraryCorrectedZVertical,-0.5536023198020438,0.4735929858866803,-0.4111759000603454,0.5478763860929741,0.06368496268987656,0.9960713386535645,0.06153168901801109,3.014867067337036,31.4863338470459,-20.53066635131836,1,11297.12598891667,walking,0,2016-03-02 02:49:23.682,2016-03-02 02:47:07.556,112,75.83226,3,3,2016-03-02 02:49:31.468,11308.18467375,0,0.834259,97.38119,192.168.1.101,100.78.239.175,2,1,0.35,0
2016-03-02 02:49:35.522,9,234B9614-18C8-49ED-8B56-CAB6C4F40872,my_iOS_device_1,1456908575.000027,40.79923299610689,-96.68577326470677,364.9411,0.21,285.1171875,4,13.3795227486067,-9999,1456908575.510716,5.322369575500488,31.62193298339844,-21.8880615234375,182.6237640380859,179.3466339111328,25,11308.93665875,0.0713043212890625,1.017791748046875,0.039337158203125,11308.90650175,0.02998559597763818,0.09463862512927382,-0.009204683675640871,11308.90650175,0.9575695571399448,2.313266214424849,-1.483785635957199,0.04966156184673309,0.06509650498628616,-0.003324506804347038,0.007870722562074661,0.01998787559568882,-0.005135192070156336,XArbitraryCorrectedZVertical,-0.5522471365315804,0.4737091815773278,-0.4123311178013672,0.5482752600425098,0.06402868777513504,0.9962169528007507,0.0587545782327652,3.08728289604187,31.38329696655273,-20.67714500427246,1,11297.12598891667,walking,0,2016-03-02 02:49:23.682,2016-03-02 02:47:07.556,112,75.83226,3,3,2016-03-02 02:49:31.468,11308.18467375,0,0.834259,97.38119,192.168.1.101,100.78.239.175,2,1,0.35,0
2016-03-02 02:49:35.549,10,234B9614-18C8-49ED-8B56-CAB6C4F40872,my_iOS_device_1,1456908575.000027,40.79923299610689,-96.68577326470677,364.9411,0.21,285.1171875,4,13.3795227486067,-9999,1456908575.510716,5.322369575500488,31.62193298339844,-21.8880615234375,182.6237640380859,179.3466339111328,25,11308.96695475,0.070068359375,0.9955291748046875,0.044708251953125,11308.94149975,0.02257321971562063,0.09994417465292968,-0.01144653268126957,11308.94149975,0.9369634912486611,2.295155605348815,-1.485059386185876,0.04225051775574684,0.07040245085954666,-0.00556576531380415,0.007172493264079094,0.02146490849554539,-0.01740733720362186,XArbitraryCorrectedZVertical,-0.5510942872176662,0.4739908587945015,-0.4134463270952382,0.5483519736325924,0.06413182616233826,0.9963268637657166,0.05674449354410172,3.150623798370361,31.33351707458496,-20.74298095703125,1,11297.12598891667,walking,0,2016-03-02 02:49:23.682,2016-03-02 02:47:07.556,112,75.83226,3,3,2016-03-02 02:49:31.468,11308.18467375,0,0.834259,97.38119,192.168.1.101,100.78.239.175,2,1,0.35,0
2016-03-02 02:49:35.579,11,234B9614-18C8-49ED-8B56-CAB6C4F40872,my_iOS_device_1,1456908575.000027,40.79923299610689,-96.68577326470677,364.9411,0.21,285.1171875,4,13.3795227486067,-9999,1456908575.569134,5.564531326293945,31.65670776367188,-22.05340576171875,182.9301147460938,179.6529846191406,25,11308.99725075,0.0703582763671875,1.006149291992188,0.0531158447265625,11308.97649975,0.006551376281594926,0.1084540396001689,-0.006354834993147078,11308.97649975,0.9163745465494505,2.277079536346947,-1.486228585883427,0.0262304712086916,0.07891268283128738,-0.0004734261310659349,0.005807626992464066,-0.0008971043862402439,-0.01011171098798513,XArbitraryCorrectedZVertical,-0.5499538590547431,0.4743002578004052,-0.4145397495010346,0.5484038789476989,0.06426073610782623,0.9964262843132019,0.05481996387243271,3.215827941894531,31.27452087402344,-20.82185745239258,1,11297.12598891667,walking,0,2016-03-02 02:49:23.682,2016-03-02 02:47:07.556,112,75.83226,3,3,2016-03-02 02:49:31.468,11308.18467375,0,0.834259,97.38119,192.168.1.101,100.78.239.175,2,1,0.35,0
2016-03-02 02:49:35.626,12,234B9614-18C8-49ED-8B56-CAB6C4F40872,my_iOS_device_1,1456908575.000027,40.79923299610689,-96.68577326470677,364.9411,0.21,285.1171875,4,13.3795227486067,-9999,1456908575.569134,5.564531326293945,31.65670776367188,-22.05340576171875,182.9301147460938,179.6529846191406,25,11309.02754875,0.0648956298828125,1.01666259765625,0.0431671142578125,11309.01153975,-0.006096508367409392,0.1265017496754179,-0.01400796101770778,11308.97649975,0.9163745465494505,2.277079536346947,-1.486228585883427,0.0262304712086916,0.07891268283128738,-0.0004734261310659349,0.005807626992464066,-0.0008971043862402439,-0.01011171098798513,XArbitraryCorrectedZVertical,-0.5499538590547431,0.4743002578004052,-0.4145397495010346,0.5484038789476989,0.06426073610782623,0.9964262843132019,0.05481996387243271,3.215827941894531,31.27452087402344,-20.82185745239258,1,11297.12598891667,walking,0,2016-03-02 02:49:23.682,2016-03-02 02:47:07.556,112,75.83226,3,3,2016-03-02 02:49:31.468,11308.18467375,0,0.834259,97.38119,192.168.1.101,100.78.239.175,2,1,0.35,0
2016-03-02 02:49:35.641,13,234B9614-18C8-49ED-8B56-CAB6C4F40872,my_iOS_device_1,1456908575.000027,40.79923299610689,-96.68577326470677,364.9411,0.21,285.1171875,4,13.3795227486067,-9999,1456908575.628673,5.183988094329834,31.62193298339844,-22.152587890625,183.1768646240234,179.8997344970703,25,11309.05784575,0.082061767578125,1.0096435546875,0.0454864501953125,11309.04652275,-0.008248875160411432,0.1126788783534706,-0.0129663987153778,11309.01153975,0.9064196651719687,2.270272723655264,-1.48663317728673,0.01358317211270332,0.09696081280708313,-0.008125741966068745,0.006034370046108961,0.01771504245698452,-0.007460352499037981,XArbitraryCorrectedZVertical,-0.5490053756758849,0.4750304855721814,-0.4155448768274438,0.5479613039243741,0.06432390958070755,0.9964603781700134,0.05412172898650169,3.254638671875,31.2569408416748,-20.84221458435059,1,11297.12598891667,walking,0,2016-03-02 02:49:23.682,2016-03-02 02:47:07.556,112,75.83226,3,3,2016-03-02 02:49:31.468,11308.18467375,0,0.834259,97.38119,192.168.1.101,100.78.239.175,2,1,0.35,0
2016-03-02 02:49:35.670,14,234B9614-18C8-49ED-8B56-CAB6C4F40872,my_iOS_device_1,1456908575.000027,40.79923299610689,-96.68577326470677,364.9411,0.21,285.1171875,4,13.3795227486067,-9999,1456908575.628673,5.183988094329834,31.62193298339844,-22.152587890625,183.1768646240234,179.8997344970703,25,11309.08814175,0.0750732421875,1.004379272460938,0.03460693359375,11309.08156075,-0.0145461858740128,0.1084029069072394,-0.01945013070528471,11309.04652275,0.8960801141272858,2.263101681080377,-1.487507397676687,0.01143235992640257,0.08313810080289841,-0.007084134500473738,0.005891269072890282,0.0144375879317522,-0.01204159948974848,XArbitraryCorrectedZVertical,-0.5480461287565336,0.4756016621203467,-0.4167267939435862,0.5475283362099519,0.06403975933790207,0.9965334534645081,0.0531029999256134,3.335026741027832,31.23492622375488,-20.86250305175781,1,11297.12598891667,walking,0,2016-03-02 02:49:23.682,2016-03-02 02:47:07.556,112,75.83226,3,3,2016-03-02 02:49:31.468,11308.18467375,0,0.834259,97.38119,192.168.1.101,100.78.239.175,2,1,0.35,0
2016-03-02 02:49:35.705,15,234B9614-18C8-49ED-8B56-CAB6C4F40872,my_iOS_device_1,1456908575.000027,40.79923299610689,-96.68577326470677,364.9411,0.21,285.1171875,4,13.3795227486067,-9999,1456908575.689398,4.457496166229248,31.1002197265625,-22.4501953125,183.3144836425781,180.037353515625,25,11309.11842175,0.08331298828125,1.001495361328125,0.027587890625,11309.08156075,-0.0145461858740128,0.1084029069072394,-0.01945013070528471,11309.08156075,0.8845923740536972,2.254288945806931,-1.487524008492838,0.005112851969897747,0.07885940372943878,-0.01356597803533077,0.01364784315228462,0.01301713846623898,-0.009465823881328106,XArbitraryCorrectedZVertical,-0.5471502853827784,0.4763293278920414,-0.4174639723506346,0.5472300872436437,0.06449241936206818,0.9965348839759827,0.05252612754702568,3.368902683258057,31.21939277648926,-20.88030242919922,1,11297.12598891667,walking,0,2016-03-02 02:49:23.682,2016-03-02 02:47:07.556,112,75.83226,3,3,2016-03-02 02:49:31.468,11308.18467375,0,0.834259,97.38119,192.168.1.101,100.78.239.175,2,1,0.35,0
2016-03-02 02:49:35.729,16,234B9614-18C8-49ED-8B56-CAB6C4F40872,my_iOS_device_1,1456908575.000027,40.79923299610689,-96.68577326470677,364.9411,0.21,285.1171875,4,13.3795227486067,-9999,1456908575.689398,4.457496166229248,31.1002197265625,-22.4501953125,183.3144836425781,180.037353515625,25,11309.14871275,0.08404541015625,1.0076904296875,0.0504302978515625,11309.11655575,-0.05085306101506305,0.09457790505642001,-0.0103786050841478,11309.11655575,0.8748653805167995,2.247064787385713,-1.487775564101099,-0.0311910342425108,0.06503463536500931,-0.004493216518312693,0.0130230812355876,0.003306915517896414,-0.02361216023564339,XArbitraryCorrectedZVertical,-0.5463448818630549,0.4769258304199373,-0.4182409799267191,0.5469218454681003,0.06467467546463013,0.9965557456016541,0.05190195515751839,3.449052095413208,31.201171875,-20.89444541931152,1,11297.12598891667,walking,0,2016-03-02 02:49:23.682,2016-03-02 02:47:07.556,112,75.83226,3,3,2016-03-02 02:49:31.468,11308.18467375,0,0.834259,97.38119,192.168.1.101,100.78.239.175,2,1,0.35,0
2016-03-02 02:49:35.786,17,234B9614-18C8-49ED-8B56-CAB6C4F40872,my_iOS_device_1,1456908575.000027,40.79923299610689,-96.68577326470677,364.9411,0.21,285.1171875,4,13.3795227486067,-9999,1456908575.746026,4.699658393859863,30.92628479003906,-22.21875,183.4283294677734,180.1511993408203,25,11309.17901275,0.088653564453125,1.008102416992188,0.0399017333984375,11309.15158275,-0.08268209709925407,0.06582162423796242,-0.01828632930892008,11309.15158275,0.8755085098992325,2.249265611951421,-1.48645505629779,-0.06301708519458771,0.03627905249595642,-0.01239761151373386,0.01846065744757652,0.01124504674226046,-0.002439722651615739,XArbitraryCorrectedZVertical,-0.5460188189126569,0.4778058806968804,-0.4181873792830298,0.5465201785598539,0.06558474898338318,0.99644535779953,0.0528700202703476,3.556396961212158,31.19413757324219,-20.8869514465332,1,11297.12598891667,walking,0,2016-03-02 02:49:23.682,2016-03-02 02:47:07.556,112,75.83226,3,3,2016-03-02 02:49:31.468,11308.18467375,0,0.834259,97.38119,192.168.1.101,100.78.239.175,2,1,0.35,0
2016-03-02 02:49:35.791,18,234B9614-18C8-49ED-8B56-CAB6C4F40872,my_iOS_device_1,1456908575.000027,40.79923299610689,-96.68577326470677,364.9411,0.21,285.1171875,4,13.3795227486067,-9999,1456908575.746026,4.699658393859863,30.92628479003906,-22.21875,183.4283294677734,180.1511993408203,25,11309.20931575,0.0755157470703125,1.013137817382812,0.062530517578125,11309.18659875,-0.1060654504184768,0.04984718507134012,-0.02074922068502536,11309.18659875,0.8885696014698158,2.263048547128951,-1.484937022020919,-0.08639843761920929,0.02030509896576405,-0.014857885427773,0.02263935282826424,0.01178606320172548,-0.01483260001987219,XArbitraryCorrectedZVertical,-0.5462422426175723,0.4785254217067661,-0.4178331340444157,0.5459380049557875,0.06601421535015106,0.9963163733482361,0.05473433434963226,3.577722549438477,31.2160530090332,-20.85053634643555,1,11297.12598891667,walking,0,2016-03-02 02:49:23.682,2016-03-02 02:47:07.556,112,75.83226,3,3,2016-03-02 02:49:31.468,11308.18467375,0,0.834259,97.38119,192.168.1.101,100.78.239.175,2,1,0.35,0
2016-03-02 02:49:35.831,19,234B9614-18C8-49ED-8B56-CAB6C4F40872,my_iOS_device_1,1456908575.000027,40.79923299610689,-96.68577326470677,364.9411,0.21,285.1171875,4,13.3795227486067,-9999,1456908575.804343,5.011014938354492,31.30889892578125,-22.31793212890625,183.5592803955078,180.2821502685547,25,11309.23961175,0.06341552734375,0.99749755859375,0.0457000732421875,11309.22161575,-0.114506605809592,0.06258987825515126,-0.02514130595478404,11309.22161575,0.9185629338662764,2.293894511221671,-1.48257601473132,-0.09484051167964935,0.03304851800203323,-0.01924789324402809,0.002987791784107685,0.009839816018939018,-0.002422949532046914,XArbitraryCorrectedZVertical,-0.5469755132923061,0.4795498987238329,-0.417228086675537,0.5447663776167243,0.06605822592973709,0.9961110949516296,0.05830063670873642,3.615031480789185,31.27793502807617,-20.75112915039062,1,11297.12598891667,walking,0,2016-03-02 02:49:23.682,2016-03-02 02:47:07.556,112,75.83226,3,3,2016-03-02 02:49:31.468,11308.18467375,0,0.834259,97.38119,192.168.1.101,100.78.239.175,2,1,0.35,0
2016-03-02 02:49:35.865,20,234B9614-18C8-49ED-8B56-CAB6C4F40872,my_iOS_device_1,1456908575.000027,40.79923299610689,-96.68577326470677,364.9411,0.21,285.1171875,4,13.3795227486067,-9999,1456908575.804343,5.011014938354492,31.30889892578125,-22.31793212890625,183.5592803955078,180.2821502685547,25,11309.26988975,0.0571136474609375,1.007339477539062,0.0603485107421875,11309.25661575,-0.1494558014269198,0.08912215324728369,-0.03525412756214193,11309.22161575,0.9185629338662764,2.293894511221671,-1.48257601473132,-0.09484051167964935,0.03304851800203323,-0.01924789324402809,0.002987791784107685,0.009839816018939018,-0.002422949532046914,XArbitraryCorrectedZVertical,-0.5469755132923061,0.4795498987238329,-0.417228086675537,0.5447663776167243,0.06605822592973709,0.9961110949516296,0.05830063670873642,3.615031480789185,31.27793502807617,-20.75112915039062,1,11297.12598891667,walking,0,2016-03-02 02:49:23.682,2016-03-02 02:47:07.556,112,75.83226,3,3,2016-03-02 02:49:31.468,11308.18467375,0,0.834259,97.38119,192.168.1.101,100.78.239.175,2,1,0.35,0
2016-03-02 02:49:35.880,21,234B9614-18C8-49ED-8B56-CAB6C4F40872,my_iOS_device_1,1456908575.000027,40.79923299610689,-96.68577326470677,364.9411,0.21,285.1171875,4,13.3795227486067,-9999,1456908575.864173,4.941825866699219,31.65669250488281,-22.1856689453125,183.6837463378906,180.4066162109375,25,11309.30019475,0.078033447265625,1.015151977539062,0.0660247802734375,11309.29163675,-0.1494680519679342,0.0923152833942887,-0.03419019470665528,11309.25661575,0.9523847703451017,2.329218784244705,-1.481102036275921,-0.1297879219055176,0.05958064272999763,-0.02936133183538914,-0.004064919892698526,0.003867249004542828,-0.0198742114007473,XArbitraryCorrectedZVertical,-0.5477334961531766,0.4804076565721883,-0.4171607697157095,0.5432986222224662,0.06502377986907959,0.9959801435470581,0.0616069994866848,3.622139930725098,31.3183536529541,-20.68883323669434,1,11297.12598891667,walking,0,2016-03-02 02:49:23.682,2016-03-02 02:47:07.556,112,75.83226,3,3,2016-03-02 02:49:31.468,11308.18467375,0,0.834259,97.38119,192.168.1.101,100.78.239.175,2,1,0.35,0
2016-03-02 02:49:35.910,22,234B9614-18C8-49ED-8B56-CAB6C4F40872,my_iOS_device_1,1456908575.000027,40.79923299610689,-96.68577326470677,364.9411,0.21,285.1171875,4,13.3795227486067,-9999,1456908575.864173,4.941825866699219,31.65669250488281,-22.1856689453125,183.6837463378906,180.4066162109375,25,11309.33049775,0.068572998046875,0.9975738525390625,0.077880859375,11309.29163675,-0.1494680519679342,0.0923152833942887,-0.03419019470665528,11309.29163675,0.9992069894246399,2.378109550793483,-1.478702890370752,-0.1298001110553741,0.06277387589216232,-0.02829810231924057,0.005855456460267305,0.02076287195086479,0.004867076873779297,XArbitraryCorrectedZVertical,-0.5488492145667609,0.4816463036838727,-0.4170010416151418,0.5411945205829378,0.06358729302883148,0.9957624077796936,0.0664372444152832,3.625413417816162,31.40327453613281,-20.55912780761719,1,11297.12598891667,walking,0,2016-03-02 02:49:23.682,2016-03-02 02:47:07.556,112,75.83226,3,3,2016-03-02 02:49:31.468,11308.18467375,0,0.834259,97.38119,192.168.1.101,100.78.239.175,2,1,0.35,0
2016-03-02 02:49:35.946,23,234B9614-18C8-49ED-8B56-CAB6C4F40872,my_iOS_device_1,1456908575.000027,40.79923299610689,-96.68577326470677,364.9411,0.21,285.1171875,4,13.3795227486067,-9999,1456908575.923979,4.457496166229248,32.49142456054688,-21.788818359375,183.7494201660156,180.4722900390625,25,11309.36080175,0.0672760009765625,1.009292602539062,0.083282470703125,11309.32665275,-0.1515328007610726,0.0976189687051815,-0.03848587354495309,11309.32665275,1.036174269176943,2.417112959585411,-1.47564339641741,-0.1318646520376205,0.06807798147201538,-0.03259177878499031,0.01059552561491728,0.01454865001142025,0.002522174501791596,XArbitraryCorrectedZVertical,-0.5497449121768779,0.483067449777359,-0.4166246881978611,0.5393053306664666,0.06296709924936295,0.9954763650894165,0.07114725559949875,3.627097129821777,31.46376037597656,-20.46613883972168,1,11297.12598891667,walking,0,2016-03-02 02:49:23.682,2016-03-02 02:47:07.556,112,75.83226,3,3,2016-03-02 02:49:31.468,11308.18467375,0,0.834259,97.38119,192.168.1.101,100.78.239.175,2,1,0.35,0
2016-03-02 02:49:35.971,24,234B9614-18C8-49ED-8B56-CAB6C4F40872,my_iOS_device_1,1456908575.000027,40.79923299610689,-96.68577326470677,364.9411,0.21,285.1171875,4,13.3795227486067,-9999,1456908575.923979,4.457496166229248,32.49142456054688,-21.788818359375,183.7494201660156,180.4722900390625,25,11309.39110575,0.0613861083984375,1.00537109375,0.084869384765625,11309.39666475,-0.1737744569209784,0.08801108244050264,-0.04626416814074752,11309.36166475,1.080254440299383,2.463224700624964,-1.472053802875942,-0.1530588120222092,0.05847436934709549,-0.0392879992723465,0.005413423292338848,0.01416368596255779,0.006526620127260685,XArbitraryCorrectedZVertical,-0.5509856599454167,0.4845541536801881,-0.416165332674356,0.5370553887317665,0.06186257675290108,0.9951289296150208,0.07675585150718689,3.671583890914917,31.63612365722656,-20.19064521789551,1,11297.12598891667,walking,0,2016-03-02 02:49:23.682,2016-03-02 02:47:07.556,112,75.83226,3,3,2016-03-02 02:49:31.468,11308.18467375,0,0.834259,97.38119,192.168.1.101,100.78.239.175,2,1,0.35,0
2016-03-02 02:49:36.002,25,234B9614-18C8-49ED-8B56-CAB6C4F40872,my_iOS_device_1,1456908575.000027,40.79923299610689,-96.68577326470677,364.9411,0.21,285.1171875,4,13.3795227486067,-9999,1456908575.982938,4.249923229217529,32.21316528320312,-21.061279296875,183.8062896728516,180.5291595458984,25,11309.42137975,0.067291259765625,1.01593017578125,0.08917236328125,11309.39666475,-0.1737744569209784,0.08801108244050264,-0.04626416814074752,11309.39666475,1.124477084139357,2.509273803395676,-1.468581349565605,-0.1541079878807068,0.05847083777189255,-0.04036885872483253,0.00108047213871032,0.01059049740433693,0.00256023439578712,XArbitraryCorrectedZVertical,-0.5523611666116864,0.485851537844454,-0.4157824874525901,0.5347619544444878,0.0603056363761425,0.9947806000709534,0.08230914920568466,3.675937175750732,31.70450782775879,-20.08229446411133,1,11297.12598891667,walking,0,2016-03-02 02:49:23.682,2016-03-02 02:47:07.556,112,75.83226,3,3,2016-03-02 02:49:31.468,11308.18467375,0,0.834259,97.38119,192.168.1.101,100.78.239.175,2,1,0.35,0
2016-03-02 02:49:36.031,26,234B9614-18C8-49ED-8B56-CAB6C4F40872,my_iOS_device_1,1456908575.000027,40.79923299610689,-96.68577326470677,364.9411,0.21,285.1171875,4,13.3795227486067,-9999,1456908575.982938,4.249923229217529,32.21316528320312,-21.061279296875,183.8062896728516,180.5291595458984,25,11309.45170175,0.067657470703125,1.02667236328125,0.1021270751953125,11309.43167675,-0.1482163662555969,0.08908779846922167,-0.04802505025350791,11309.43167675,1.161738560120644,2.548462780080679,-1.464792643557893,-0.128551259636879,0.05954806879162788,-0.04212820902466774,0.01440655067563057,0.02451877109706402,0.003743209643289447,XArbitraryCorrectedZVertical,-0.5535804940347681,0.4872527599042241,-0.4153394723537969,0.5325659652050663,0.05914081260561943,0.9943868517875671,0.08773323148488998,3.674534797668457,31.837158203125,-19.87158966064453,1,11297.12598891667,walking,0,2016-03-02 02:49:23.682,2016-03-02 02:47:07.556,112,75.83226,3,3,2016-03-02 02:49:31.468,11308.18467375,0,0.834259,97.38119,192.168.1.101,100.78.239.175,2,1,0.35,0
2016-03-02 02:49:36.061,27,234B9614-18C8-49ED-8B56-CAB6C4F40872,my_iOS_device_1,1456908575.000027,40.79923299610689,-96.68577326470677,364.9411,0.21,285.1171875,4,13.3795227486067,-9999,1456908576.043268,4.111544609069824,32.28271484375,-20.13525390625,184.9089660644531,181.6318359375,25,11309.48198675,0.07080078125,1.011123657226562,0.1004180908203125,11309.46670075,-0.1067900965510874,0.07211334231327463,-0.04421752884302162,11309.46670075,1.191505607830154,2.579884582472395,-1.461734996028618,-0.0871264636516571,0.04257410764694214,-0.0383189357817173,0.01111726555973291,0.02214612811803818,0.0129969883710146,XArbitraryCorrectedZVertical,-0.5545915860818771,0.4883529231342031,-0.4150633183164305,0.530718415830482,0.05797453224658966,0.9940587282180786,0.09212081134319305,3.678354263305664,31.89859390258789,-19.77210998535156,1,11297.12598891667,walking,0,2016-03-02 02:49:23.682,2016-03-02 02:47:07.556,112,75.83226,3,3,2016-03-02 02:49:31.468,11308.18467375,0,0.834259,97.38119,192.168.1.101,100.78.239.175,2,1,0.35,0
2016-03-02 02:49:36.107,28,234B9614-18C8-49ED-8B56-CAB6C4F40872,my_iOS_device_1,1456908576.000027,40.79923211600705,-96.68577410289708,365.3967,0.16,267.1875,4,12.9608051047556,-9999,1456908576.092758,3.869382858276367,31.96969604492188,-19.9698486328125,184.9203948974609,181.6432647705078,25,11309.51229075,0.070587158203125,1.00421142578125,0.1157989501953125,11309.50170575,-0.09300850422603632,0.04979818290728267,-0.04187447971596991,11309.50170575,1.210220116170907,2.599419604593795,-1.459568858374435,-0.07334592193365097,0.02025935798883438,-0.03597362712025642,0.0175999253988266,0.01179463416337967,0.004590468946844339,XArbitraryCorrectedZVertical,-0.5553231325158375,0.4890359792443665,-0.4147714765010901,0.5295513684038619,0.0572749525308609,0.9938206076622009,0.0950799435377121,3.687679290771484,32.00047302246094,-19.60504531860352,1,11297.12598891667,walking,0,2016-03-02 02:49:23.682,2016-03-02 02:47:07.556,112,75.83226,3,3,2016-03-02 02:49:31.468,11309.49790675,0,0.9671631,97.37964,192.168.1.101,100.78.239.175,2,1,0.35,0
2016-03-02 02:49:36.122,29,234B9614-18C8-49ED-8B56-CAB6C4F40872,my_iOS_device_1,1456908576.000027,40.79923211600705,-96.68577410289708,365.3967,0.16,267.1875,4,12.9608051047556,-9999,1456908576.092758,3.869382858276367,31.96969604492188,-19.9698486328125,184.9203948974609,181.6432647705078,25,11309.54257575,0.061676025390625,1.008468627929688,0.11407470703125,11309.53672975,-0.07056498045550255,0.05511145559809975,-0.04901148512127326,11309.50170575,1.210220116170907,2.599419604593795,-1.459568858374435,-0.07334592193365097,0.02025935798883438,-0.03597362712025642,0.0175999253988266,0.01179463416337967,0.004590468946844339,XArbitraryCorrectedZVertical,-0.5553231325158375,0.4890359792443665,-0.4147714765010901,0.5295513684038619,0.0572749525308609,0.9938206076622009,0.0950799435377121,3.687679290771484,32.00047302246094,-19.60504531860352,1,11297.12598891667,walking,0,2016-03-02 02:49:23.682,2016-03-02 02:47:07.556,112,75.83226,3,3,2016-03-02 02:49:31.468,11309.49790675,0,0.9671631,97.37964,192.168.1.101,100.78.239.175,2,1,0.35,0
2016-03-02 02:49:36.153,30,234B9614-18C8-49ED-8B56-CAB6C4F40872,my_iOS_device_1,1456908576.000027,40.79923211600705,-96.68577410289708,365.3967,0.16,267.1875,4,12.9608051047556,-9999,1456908576.150391,3.419653415679932,32.28271484375,-20.3336181640625,184.8972473144531,181.6201171875,25,11309.57288375,0.0619659423828125,1.029037475585938,0.1177215576171875,11309.57174075,-0.05152630813863508,0.04876594166876796,-0.04127154004517597,11309.53672975,1.230830099269171,2.620734563463376,-1.456806632427371,-0.05090678855776787,0.02557357214391232,-0.043107520788908,0.00963708758354187,0.01361564826220274,0.0226628091186285,XArbitraryCorrectedZVertical,-0.556235996006515,0.489827957405232,-0.4142914634990043,0.528235432513484,0.05660131573677063,0.9935101866722107,0.09865982085466385,3.6874840259552,32.11268615722656,-19.42073249816895,1,11297.12598891667,walking,0,2016-03-02 02:49:23.682,2016-03-02 02:47:07.556,112,75.83226,3,3,2016-03-02 02:49:31.468,11309.49790675,0,0.9671631,97.37964,192.168.1.101,100.78.239.175,2,1,0.35,0
2016-03-02 02:49:36.193,31,234B9614-18C8-49ED-8B56-CAB6C4F40872,my_iOS_device_1,1456908576.000027,40.79923211600705,-96.68577410289708,365.3967,0.16,267.1875,4,12.9608051047556,-9999,1456908576.150391,3.419653415679932,32.28271484375,-20.3336181640625,184.8972473144531,181.6201171875,25,11309.60319675,0.0489349365234375,1.023666381835938,0.1253204345703125,11309.60675175,0.0153999953194922,0.05308745316963953,-0.03390736699888886,11309.57174075,1.248110986385305,2.638712550122567,-1.455771730609295,-0.03187000378966331,0.01922849752008915,-0.03536684066057205,0.006545064970850945,0.02407935261726379,0.01094898767769337,XArbitraryCorrectedZVertical,-0.5568589298095572,0.4900910665372239,-0.4143794662277177,0.5272651484410741,0.05531406402587891,0.9933919906616211,0.1005622446537018,3.677091121673584,32.14536666870117,-19.36856651306152,1,11297.12598891667,walking,0,2016-03-02 02:49:23.682,2016-03-02 02:47:07.556,112,75.83226,3,3,2016-03-02 02:49:31.468,11309.49790675,0,0.9671631,97.37964,192.168.1.101,100.78.239.175,2,1,0.35,0
2016-03-02 02:49:36.212,32,234B9614-18C8-49ED-8B56-CAB6C4F40872,my_iOS_device_1,1456908576.000027,40.79923211600705,-96.68577410289708,365.3967,0.16,267.1875,4,12.9608051047556,-9999,1456908576.209338,3.5234375,32.45664978027344,-19.9036865234375,184.7213745117188,181.4442443847656,25,11309.63347675,0.0499420166015625,1.0072021484375,0.128265380859375,11309.60675175,0.0153999953194922,0.05308745316963953,-0.03390736699888886,11309.60675175,1.26126013176384,2.652527983993146,-1.455512532834186,0.03505199775099754,0.0235508531332016,-0.02800250984728336,-0.005105548538267612,0.03030420280992985,0.02377632819116116,XArbitraryCorrectedZVertical,-0.5572476669411085,0.4901500697683503,-0.4146748232630611,0.526566935675339,0.05404048413038254,0.9933621883392334,0.1015441045165062,3.663789749145508,32.16816711425781,-19.33320617675781,1,11297.12598891667,walking,0,2016-03-02 02:49:23.682,2016-03-02 02:47:07.556,112,75.83226,3,3,2016-03-02 02:49:31.468,11309.49790675,0,0.9671631,97.37964,192.168.1.101,100.78.239.175,2,1,0.35,0
2016-03-02 02:49:36.270,33,234B9614-18C8-49ED-8B56-CAB6C4F40872,my_iOS_device_1,1456908576.000027,40.79923211600705,-96.68577410289708,365.3967,0.16,267.1875,4,12.9608051047556,-9999,1456908576.268667,3.627220630645752,32.35231018066406,-19.87066650390625,184.7339172363281,181.456787109375,25,11309.66378075,0.0513763427734375,1.000732421875,0.1106719970703125,11309.64176775,0.04522473636728959,0.07011836834069626,-0.03561445325762965,11309.64176775,1.267257842568356,2.659678729840321,-1.45667986179793,0.06487185508012772,0.04058261588215828,-0.02971000410616398,-0.00283350283280015,0.01370636932551861,0.02736502885818481,XArbitraryCorrectedZVertical,-0.5570949980136457,0.4899952442088311,-0.4154846785992483,0.5262340787997092,0.05277552083134651,0.993495762348175,0.1009003520011902,3.62689733505249,32.19358444213867,-19.29781723022461,1,11297.12598891667,walking,0,2016-03-02 02:49:23.682,2016-03-02 02:47:07.556,112,75.83226,3,3,2016-03-02 02:49:31.468,11309.49790675,0,0.9671631,97.37964,192.168.1.101,100.78.239.175,2,1,0.35,0
2016-03-02 02:49:36.286,34,234B9614-18C8-49ED-8B56-CAB6C4F40872,my_iOS_device_1,1456908576.000027,40.79923211600705,-96.68577410289708,365.3967,0.16,267.1875,4,12.9608051047556,-9999,1456908576.268667,3.627220630645752,32.35231018066406,-19.87066650390625,184.7339172363281,181.456787109375,25,11309.69409175,0.054168701171875,1.000808715820312,0.1244964599609375,11309.67677875,0.02814908008991953,0.0722441035227975,-0.03160053686266222,11309.67677875,1.270686903834338,2.664694195940744,-1.458017884630508,0.04779235646128654,0.04270906746387482,-0.02569607831537724,-0.0009536005672998726,0.006779997143894434,0.01712851785123348,XArbitraryCorrectedZVertical,-0.5567308702163147,0.4899408962950271,-0.4164324729006824,0.5259207657048997,0.05165855586528778,0.9936472773551941,0.09998268634080887,3.62121057510376,32.1721076965332,-19.33466339111328,1,11297.12598891667,walking,0,2016-03-02 02:49:23.682,2016-03-02 02:47:07.556,112,75.83226,3,3,2016-03-02 02:49:31.468,11309.49790675,0,0.9671631,97.37964,192.168.1.101,100.78.239.175,2,1,0.35,0
2016-03-02 02:49:36.304,35,234B9614-18C8-49ED-8B56-CAB6C4F40872,my_iOS_device_1,1456908576.000027,40.79923211600705,-96.68577410289708,365.3967,0.16,267.1875,4,12.9608051047556,-9999,1456908576.268667,3.627220630645752,32.35231018066406,-19.87066650390625,184.7339172363281,181.456787109375,25,11309.72439075,0.061126708984375,1.009796142578125,0.11590576171875,11309.71178875,0.01426628764344547,0.05735490250038251,-0.02859729010137987,11309.71178875,1.275764537758177,2.670870422288206,-1.458571644580899,0.03390538319945335,0.02782052382826805,-0.02269250154495239,0.001776027958840132,0.007801203522831202,0.02311538532376289,XArbitraryCorrectedZVertical,-0.5566202844732334,0.48997813094081,-0.4170039387237509,0.5255501928470401,0.05079049989581108,0.9937094449996948,0.0998094230890274,3.620358943939209,32.16747283935547,-19.34253883361816,1,11297.12598891667,walking,0,2016-03-02 02:49:23.682,2016-03-02 02:47:07.556,112,75.83226,3,3,2016-03-02 02:49:31.468,11309.49790675,0,0.9671631,97.37964,192.168.1.101,100.78.239.175,2,1,0.35,0
2016-03-02 02:49:36.353,36,234B9614-18C8-49ED-8B56-CAB6C4F40872,my_iOS_device_1,1456908576.000027,40.79923211600705,-96.68577410289708,365.3967,0.16,267.1875,4,12.9608051047556,-9999,1456908576.326906,4.076952934265137,32.66535949707031,-20.1021728515625,184.7857666015625,181.5086364746094,25,11309.75468875,0.059326171875,1.010116577148438,0.1438140869140625,11309.74680375,-0.002790193874076018,0.02650644232955866,-0.02776345436407606,11309.71178875,1.275764537758177,2.670870422288206,-1.458571644580899,0.03390538319945335,0.02782052382826805,-0.02269250154495239,0.001776027958840132,0.007801203522831202,0.02311538532376289,XArbitraryCorrectedZVertical,-0.5566202844732334,0.48997813094081,-0.4170039387237509,0.5255501928470401,0.05079049989581108,0.9937094449996948,0.0998094230890274,3.620358943939209,32.16747283935547,-19.34253883361816,1,11297.12598891667,walking,0,2016-03-02 02:49:23.682,2016-03-02 02:47:07.556,112,75.83226,3,3,2016-03-02 02:49:31.468,11309.49790675,0,0.9671631,97.37964,192.168.1.101,100.78.239.175,2,1,0.35,0
2016-03-02 02:49:36.377,37,234B9614-18C8-49ED-8B56-CAB6C4F40872,my_iOS_device_1,1456908576.000027,40.79923211600705,-96.68577410289708,365.3967,0.16,267.1875,4,12.9608051047556,-9999,1456908576.364422,3.73100471496582,32.59579467773438,-20.1021728515625,184.8034057617188,181.5262756347656,25,11309.78498875,0.046234130859375,1.0037841796875,0.1140594482421875,11309.78180075,0.02690724807361558,0.01059245691968116,-0.02199531375907344,11309.74680375,1.281049532315445,2.676554187805279,-1.458044738146968,0.01684339344501495,-0.003027281491085887,-0.02185636758804321,0.009128379635512829,0.01684777624905109,0.03461315110325813,XArbitraryCorrectedZVertical,-0.5567955029333371,0.4901642571296614,-0.4170201069246082,0.5251780644375044,0.0504571907222271,0.9936502575874329,0.1005644649267197,3.621614694595337,32.17063522338867,-19.33704376220703,1,11297.12598891667,walking,0,2016-03-02 02:49:23.682,2016-03-02 02:47:07.556,112,75.83226,3,3,2016-03-02 02:49:31.468,11309.49790675,0,0.9671631,97.37964,192.168.1.101,100.78.239.175,2,1,0.35,0
2016-03-02 02:49:36.395,38,234B9614-18C8-49ED-8B56-CAB6C4F40872,my_iOS_device_1,1456908576.000027,40.79923211600705,-96.68577410289708,365.3967,0.16,267.1875,4,12.9608051047556,-9999,1456908576.364422,3.73100471496582,32.59579467773438,-20.1021728515625,184.8034057617188,181.5262756347656,25,11309.81528575,0.0527801513671875,0.9961395263671875,0.1147308349609375,11309.81679975,0.007469367909345239,-0.007444067878989487,-0.002019208738498078,11309.78180075,1.286669727850686,2.681712155881927,-1.458149532098289,0.0465342290699482,-0.01894034445285797,-0.01608752645552158,-0.0009719195659272373,0.01549321692436934,0.02349173277616501,XArbitraryCorrectedZVertical,-0.5570839183345696,0.4899209553342795,-0.4170160061572346,0.5251024814891035,0.04989159852266312,0.9936620593070984,0.1007300689816475,3.618187427520752,32.18257904052734,-19.31779861450195,1,11297.12598891667,walking,0,2016-03-02 02:49:23.682,2016-03-02 02:47:07.556,112,75.83226,3,3,2016-03-02 02:49:31.468,11309.49790675,0,0.9671631,97.37964,192.168.1.101,100.78.239.175,2,1,0.35,0
2016-03-02 02:49:36.436,39,234B9614-18C8-49ED-8B56-CAB6C4F40872,my_iOS_device_1,1456908576.000027,40.79923211600705,-96.68577410289708,365.3967,0.16,267.1875,4,12.9608051047556,-9999,1456908576.421309,3.419650554656982,32.90882873535156,-19.80462646484375,184.8253784179688,181.5482482910156,25,11309.84558375,0.0411224365234375,1.0118408203125,0.1033477783203125,11309.85184375,-0.04234000027451576,0.002053829832669109,-0.01553634916730426,11309.81679975,1.28660543344704,2.680647462858008,-1.458572534235689,0.0270931888371706,-0.03697624430060387,0.003888401202857494,0.002968296874314547,0.002430010121315718,0.0144304046407342,XArbitraryCorrectedZVertical,-0.5572366319855325,0.489527886040487,-0.4168784416841923,0.5254161680240789,0.04981185495853424,0.9937095046043396,0.1003004312515259,3.584085464477539,32.18909072875977,-19.31330299377441,1,11297.12598891667,walking,0,2016-03-02 02:49:23.682,2016-03-02 02:47:07.556,112,75.83226,3,3,2016-03-02 02:49:31.468,11309.49790675,0,0.9671631,97.37964,192.168.1.101,100.78.239.175,2,1,0.35,0
2016-03-02 02:49:36.455,40,234B9614-18C8-49ED-8B56-CAB6C4F40872,my_iOS_device_1,1456908576.000027,40.79923211600705,-96.68577410289708,365.3967,0.16,267.1875,4,12.9608051047556,-9999,1456908576.421309,3.419650554656982,32.90882873535156,-19.80462646484375,184.8253784179688,181.5482482910156,25,11309.87586875,0.0365447998046875,1.009902954101562,0.1134033203125,11309.85184375,-0.04234000027451576,0.002053829832669109,-0.01553634916730426,11309.85184375,1.293012903060899,2.685960744248964,-1.457928245828991,-0.02271849289536476,-0.02747782506048679,-0.009629223495721817,-0.008437504991889,0.01820366270840168,0.002209200756624341,XArbitraryCorrectedZVertical,-0.55777973472953,0.4893373645509446,-0.4164600767732227,0.5253491368922459,0.04955994337797165,0.9936371445655823,0.1011385768651962,3.537309885025024,32.19791412353516,-19.30722427368164,1,11297.12598891667,walking,0,2016-03-02 02:49:23.682,2016-03-02 02:47:07.556,112,75.83226,3,3,2016-03-02 02:49:31.468,11309.49790675,0,0.9671631,97.37964,192.168.1.101,100.78.239.175,2,1,0.35,0
2016-03-02 02:49:36.520,41,234B9614-18C8-49ED-8B56-CAB6C4F40872,my_iOS_device_1,1456908576.000027,40.79923211600705,-96.68577410289708,365.3967,0.16,267.1875,4,12.9608051047556,-9999,1456908576.474096,3.350461483001709,32.97840881347656,-19.73846435546875,184.839599609375,181.5624694824219,25,11309.90618075,0.036285400390625,1.009201049804688,0.10699462890625,11309.88685475,-0.02103178207668277,0.009507751407691889,-0.01736221241066259,11309.88685475,1.30470623517774,2.696891432484361,-1.4577767704831,-0.001412681769579649,-0.02002288587391376,-0.01145834196358919,-0.005333863664418459,0.01809866540133953,0.003261900739744306,XArbitraryCorrectedZVertical,-0.5583835140266747,0.4889917295810833,-0.4163887486068783,0.5250860402811293,0.04851623624563217,0.9936200976371765,0.1018101200461388,3.507753849029541,32.2126350402832,-19.28804779052734,1,11297.12598891667,walking,0,2016-03-02 02:49:23.682,2016-03-02 02:47:07.556,112,75.83226,3,3,2016-03-02 02:49:31.468,11309.49790675,0,0.9671631,97.37964,192.168.1.101,100.78.239.175,2,1,0.35,0
2016-03-02 02:49:36.521,42,234B9614-18C8-49ED-8B56-CAB6C4F40872,my_iOS_device_1,1456908576.000027,40.79923211600705,-96.68577410289708,365.3967,0.16,267.1875,4,12.9608051047556,-9999,1456908576.474096,3.350461483001709,32.97840881347656,-19.73846435546875,184.839599609375,181.5624694824219,25,11309.93647875,0.0360565185546875,1.012603759765625,0.1007537841796875,11309.92186575,-0.01877368778840458,0.02756371728232012,-0.02586462050684956,11309.92186575,1.313863565850436,2.705711065239427,-1.4582298338502,0.000844927504658699,-0.00196632300503552,-0.01996305398643017,-0.01402487233281136,0.01379046868532896,-0.0001413891732227057,XArbitraryCorrectedZVertical,-0.5587245169110618,0.4886101656176663,-0.4165989337476567,0.5249117532098966,0.04742636159062386,0.9936710596084595,0.1018259599804878,3.483734130859375,32.21790313720703,-19.28360176086426,1,11297.12598891667,walking,0,2016-03-02 02:49:23.682,2016-03-02 02:47:07.556,112,75.83226,3,3,2016-03-02 02:49:31.468,11309.49790675,0,0.9671631,97.37964,192.168.1.101,100.78.239.175,2,1,0.35,0
2016-03-02 02:49:36.546,43,234B9614-18C8-49ED-8B56-CAB6C4F40872,my_iOS_device_1,1456908576.000027,40.79923211600705,-96.68577410289708,365.3967,0.16,267.1875,4,12.9608051047556,-9999,1456908576.532893,3.627218246459961,33.46534729003906,-19.27545166015625,184.8638458251953,181.5867156982422,25,11309.96677875,0.0367431640625,1.006912231445312,0.101165771484375,11309.95685475,-0.01028406286544999,0.04033677050255816,-0.02361637991460467,11309.92186575,1.313863565850436,2.705711065239427,-1.4582298338502,0.000844927504658699,-0.00196632300503552,-0.01996305398643017,-0.01402487233281136,0.01379046868532896,-0.0001413891732227057,XArbitraryCorrectedZVertical,-0.5587245169110618,0.4886101656176663,-0.4165989337476567,0.5249117532098966,0.04742636159062386,0.9936710596084595,0.1018259599804878,3.483734130859375,32.21790313720703,-19.28360176086426,1,11297.12598891667,walking,0,2016-03-02 02:49:23.682,2016-03-02 02:47:07.556,112,75.83226,3,3,2016-03-02 02:49:31.468,11309.49790675,0,0.9671631,97.37964,192.168.1.101,100.78.239.175,2,1,0.35,0
2016-03-02 02:49:36.601,44,234B9614-18C8-49ED-8B56-CAB6C4F40872,my_iOS_device_1,1456908576.000027,40.79923211600705,-96.68577410289708,365.3967,0.16,267.1875,4,12.9608051047556,-9999,1456908576.590663,3.627218246459961,32.70016479492188,-19.5400390625,184.9113159179688,181.6341857910156,25,11309.99706275,0.042938232421875,1.013824462890625,0.1012725830078125,11309.99188375,-0.01985945856482989,0.03713937929780903,-0.02375379902685276,11309.95685475,1.326147264331839,2.718252614062219,-1.458764617213337,0.009334041737020016,0.01080757193267345,-0.01771841756999493,-0.01357866730540991,0.02100898139178753,0.009537220932543278,XArbitraryCorrectedZVertical,-0.5590375633604978,0.4883043307632929,-0.4170580763120506,0.5244982786365046,0.04592730104923248,0.9937310218811035,0.1019282341003418,3.433396339416504,32.22194671630859,-19.28587532043457,1,11297.12598891667,walking,0,2016-03-02 02:49:23.682,2016-03-02 02:47:07.556,112,75.83226,3,3,2016-03-02 02:49:31.468,11309.49790675,0,0.9671631,97.37964,192.168.1.101,100.78.239.175,2,1,0.35,0
2016-03-02 02:49:36.606,45,234B9614-18C8-49ED-8B56-CAB6C4F40872,my_iOS_device_1,1456908576.000027,40.79923211600705,-96.68577410289708,365.3967,0.16,267.1875,4,12.9608051047556,-9999,1456908576.590663,3.627218246459961,32.70016479492188,-19.5400390625,184.9113159179688,181.6341857910156,25,11310.02734875,0.0518035888671875,1.015457153320312,0.110809326171875,11309.99188375,-0.01985945856482989,0.03713937929780903,-0.02375379902685276,11309.99188375,1.332604954270495,2.724986743137233,-1.45969258572559,-0.0002406177518423647,0.007610558997839689,-0.0178572740405798,-0.003133902093395591,0.01422231458127499,-0.00509366113692522,XArbitraryCorrectedZVertical,-0.5590787746595701,0.4879824415318844,-0.4175531846175275,0.5243599894132757,0.04486668854951859,0.9938343167304993,0.1013918817043304,3.378026008605957,32.2235107421875,-19.29304122924805,1,11297.12598891667,walking,0,2016-03-02 02:49:23.682,2016-03-02 02:47:07.556,112,75.83226,3,3,2016-03-02 02:49:31.468,11309.49790675,0,0.9671631,97.37964,192.168.1.101,100.78.239.175,2,1,0.35,0
2016-03-02 02:49:36.637,46,234B9614-18C8-49ED-8B56-CAB6C4F40872,my_iOS_device_1,1456908576.000027,40.79923211600705,-96.68577410289708,365.3967,0.16,267.1875,4,12.9608051047556,-9999,1456908576.590663,3.627218246459961,32.70016479492188,-19.5400390625,184.9113159179688,181.6341857910156,25,11310.05767075,0.0424957275390625,1.000045776367188,0.095367431640625,11310.02689475,-0.0007856325215733753,0.01908767448092492,-0.0192045872527794,11310.02689475,1.335905336467934,2.728166645666284,-1.459753171392626,0.01883197203278542,-0.0104409484192729,-0.01330779120326042,0.005635782144963741,0.02665151283144951,0.01358762942254543,XArbitraryCorrectedZVertical,-0.559211451199232,0.4878749861120597,-0.4175968971236343,0.5242836849326078,0.04451985657215118,0.9938410520553589,0.1014788970351219,3.366498947143555,32.22282791137695,-19.29618835449219,1,11297.12598891667,walking,0,2016-03-02 02:49:23.682,2016-03-02 02:47:07.556,115,77.7141,3,3,2016-03-02 02:49:34.058,11309.49790675,0,0.9671631,97.37964,192.168.1.101,100.78.239.175,2,1,0.35,0
2016-03-02 02:49:36.684,47,234B9614-18C8-49ED-8B56-CAB6C4F40872,my_iOS_device_1,1456908576.000027,40.79923211600705,-96.68577410289708,365.3967,0.16,267.1875,4,12.9608051047556,-9999,1456908576.650656,3.24667501449585,32.5958251953125,-19.5069580078125,184.9321136474609,181.6549835205078,25,11310.08796875,0.037261962890625,1.011001586914062,0.1048583984375,11310.06191975,-0.01353498360810971,0.01907515762380155,-0.02045547401678962,11310.06191975,1.336834940109096,2.728722947083621,-1.460346821149983,0.006082559004426003,-0.01045334991067648,-0.01455800794064999,-0.001730933436192572,0.006139124743640423,-0.005595781374722719,XArbitraryCorrectedZVertical,-0.5592375538743208,0.4875807265599864,-0.4177037998131079,0.5244444003377167,0.04422666132450104,0.9939066767692566,0.1009632125496864,3.353448390960693,32.22144317626953,-19.30077934265137,1,11297.12598891667,walking,0,2016-03-02 02:49:23.682,2016-03-02 02:47:07.556,115,77.7141,3,3,2016-03-02 02:49:34.058,11309.49790675,0,0.9671631,97.37964,192.168.1.101,100.78.239.175,2,1,0.35,0
2016-03-02 02:49:36.698,48,234B9614-18C8-49ED-8B56-CAB6C4F40872,my_iOS_device_1,1456908576.000027,40.79923211600705,-96.68577410289708,365.3967,0.16,267.1875,4,12.9608051047556,-9999,1456908576.650656,3.24667501449585,32.5958251953125,-19.5069580078125,184.9321136474609,181.6549835205078,25,11310.11826975,0.037109375,1.01446533203125,0.107574462890625,11310.09693075,-0.0296202102760793,0.02121633914022526,-0.01109845752679622,11310.09693075,1.342343685381458,2.733975619193734,-1.460626731611233,-0.01002144999802113,-0.008316854946315289,-0.005203130654990673,-0.006323475390672684,0.01706412062048912,0.003919686190783978,XArbitraryCorrectedZVertical,-0.559442913921215,0.4873325171649462,-0.4178202449769165,0.5243633155212531,0.04358543828129768,0.9939374923706055,0.1009387150406837,3.339500904083252,32.2160530090332,-19.31218910217285,1,11297.12598891667,walking,0,2016-03-02 02:49:23.682,2016-03-02 02:47:07.556,115,77.7141,3,3,2016-03-02 02:49:34.058,11309.49790675,0,0.9671631,97.37964,192.168.1.101,100.78.239.175,2,1,0.35,0
2016-03-02 02:49:36.764,49,234B9614-18C8-49ED-8B56-CAB6C4F40872,my_iOS_device_1,1456908576.000027,40.79923211600705,-96.68577410289708,365.3967,0.16,267.1875,4,12.9608051047556,-9999,1456908576.709414,2.935323715209961,32.42189025878906,-19.80462646484375,184.9324645996094,181.6553344726562,25,11310.14856875,0.0375518798828125,1.007156372070312,0.10028076171875,11310.13194175,-0.02427258280720019,0.0212144749274622,-0.01315228735946533,11310.13194175,1.351018093780126,2.742328223559995,-1.460496631870251,-0.004675304982811213,-0.008318101055920124,-0.007259088568389416,-0.00717708095908165,0.01924518123269081,-0.002556684194132686,XArbitraryCorrectedZVertical,-0.559830079729444,0.4871339355071151,-0.4178411803406598,0.5241178862803605,0.04279109463095665,0.9939231276512146,0.1014183759689331,3.308220863342285,32.22372055053711,-19.30477905273438,1,11297.12598891667,walking,0,2016-03-02 02:49:23.682,2016-03-02 02:47:07.556,115,77.7141,3,3,2016-03-02 02:49:34.058,11309.49790675,0,0.9671631,97.37964,192.168.1.101,100.78.239.175,2,1,0.35,0
2016-03-02 02:49:36.766,50,234B9614-18C8-49ED-8B56-CAB6C4F40872,my_iOS_device_1,1456908576.000027,40.79923211600705,-96.68577410289708,365.3967,0.16,267.1875,4,12.9608051047556,-9999,1456908576.709414,2.935323715209961,32.42189025878906,-19.80462646484375,184.9324645996094,181.6553344726562,25,11310.17886775,0.0389251708984375,1.004348754882812,0.1023101806640625,11310.16695775,-0.01802241004489323,0.02124563391221613,-0.003469832584264239,11310.13194175,1.351018093780126,2.742328223559995,-1.460496631870251,-0.004675304982811213,-0.008318101055920124,-0.007259088568389416,-0.00717708095908165,0.01924518123269081,-0.002556684194132686,XArbitraryCorrectedZVertical,-0.559830079729444,0.4871339355071151,-0.4178411803406598,0.5241178862803605,0.04279109463095665,0.9939231276512146,0.1014183759689331,3.308220863342285,32.22372055053711,-19.30477905273438,1,11297.12598891667,walking,0,2016-03-02 02:49:23.682,2016-03-02 02:47:07.556,115,77.7141,3,3,2016-03-02 02:49:34.058,11309.49790675,0,0.9671631,97.37964,192.168.1.101,100.78.239.175,2,1,0.35,0
2016-03-02 02:49:36.788,51,234B9614-18C8-49ED-8B56-CAB6C4F40872,my_iOS_device_1,1456908576.000027,40.79923211600705,-96.68577410289708,365.3967,0.16,267.1875,4,12.9608051047556,-9999,1456908576.769864,3.558034896850586,32.56103515625,-19.67236328125,184.9515991210938,181.6744689941406,25,11310.20915075,0.0326385498046875,1.01361083984375,0.0977020263671875,11310.16695775,-0.01802241004489323,0.02124563391221613,-0.003469832584264239,11310.16695775,1.353861407789365,2.744814443798337,-1.460616964203275,0.001575040281750262,-0.008286573924124241,0.002421942539513111,-0.006359781604260206,0.01344886235892773,0.003810466267168522,XArbitraryCorrectedZVertical,-0.5599853607406193,0.4869532495565797,-0.417831319949255,0.5241277674116714,0.04249259456992149,0.9939364194869995,0.1014141440391541,3.290946483612061,32.23096084594727,-19.29564476013184,1,11297.12598891667,walking,0,2016-03-02 02:49:23.682,2016-03-02 02:47:07.556,115,77.7141,3,3,2016-03-02 02:49:34.058,11309.49790675,0,0.9671631,97.37964,192.168.1.101,100.78.239.175,2,1,0.35,0
2016-03-02 02:49:36.844,52,234B9614-18C8-49ED-8B56-CAB6C4F40872,my_iOS_device_1,1456908576.000027,40.79923211600705,-96.68577410289708,365.3967,0.16,267.1875,4,12.9608051047556,-9999,1456908576.826842,3.488845825195312,32.63059997558594,-19.67236328125,184.9852142333984,181.7080841064453,25,11310.23945875,0.03857421875,1.012969970703125,0.106689453125,11310.23696475,-0.02438656610185558,0.02549151163812946,-0.004630171871211764,11310.20196975,1.358811608156754,2.749594964545615,-1.460705523886262,-0.02490824460983276,-0.001946215517818928,-0.005427906755357981,-0.00709207821637392,0.01285929419100285,-0.01010410953313112,XArbitraryCorrectedZVertical,-0.5601784704812922,0.4867930444111851,-0.417901754108032,0.5240140618681466,0.04197366908192635,0.9939461350440979,0.1015347763895988,3.259446620941162,32.23487854003906,-19.2944450378418,1,11297.12598891667,walking,0,2016-03-02 02:49:23.682,2016-03-02 02:47:07.556,115,77.7141,3,3,2016-03-02 02:49:34.058,11309.49790675,0,0.9671631,97.37964,192.168.1.101,100.78.239.175,2,1,0.35,0
2016-03-02 02:49:36.849,53,234B9614-18C8-49ED-8B56-CAB6C4F40872,my_iOS_device_1,1456908576.000027,40.79923211600705,-96.68577410289708,365.3967,0.16,267.1875,4,12.9608051047556,-9999,1456908576.826842,3.488845825195312,32.63059997558594,-19.67236328125,184.9852142333984,181.7080841064453,25,11310.26976175,0.027374267578125,1.006912231445312,0.0985260009765625,11310.23696475,-0.02438656610185558,0.02549151163812946,-0.004630171871211764,11310.23696475,1.363051916523508,2.753714832639935,-1.460352781332675,-0.004788269754499197,-0.004039876163005829,0.00125828362070024,-0.002792957471683621,0.02139725722372532,0.007526712492108345,XArbitraryCorrectedZVertical,-0.5604025992916541,0.4867901223672804,-0.4178305788082367,0.5238338580939317,0.04168761149048805,0.9939073324203491,0.1020313948392868,3.237984180450439,32.24371719360352,-19.28328514099121,1,11297.12598891667,walking,0,2016-03-02 02:49:23.682,2016-03-02 02:47:07.556,115,77.7141,3,3,2016-03-02 02:49:34.058,11309.49790675,0,0.9671631,97.37964,192.168.1.101,100.78.239.175,2,1,0.35,0
2016-03-02 02:49:36.884,54,234B9614-18C8-49ED-8B56-CAB6C4F40872,my_iOS_device_1,1456908576.000027,40.79923211600705,-96.68577410289708,365.3967,0.16,267.1875,4,12.9608051047556,-9999,1456908576.826842,3.488845825195312,32.63059997558594,-19.67236328125,184.9852142333984,181.7080841064453,25,11310.30005875,0.035430908203125,1.010971069335938,0.114715576171875,11310.27199575,-0.03710102977811188,0.03291693738948839,-0.0080158485650295,11310.27199575,1.368695324164464,2.75937565786897,-1.460519860348227,-0.01750214770436287,0.003386061638593674,-0.002129668602719903,-0.01367315929383039,0.01298652123659849,-0.003585662692785263,XArbitraryCorrectedZVertical,-0.560567825697444,0.4866410840387486,-0.4179932338245357,0.5236657565616946,0.04104742780327797,0.9939256906509399,0.1021116673946381,3.233094930648804,32.24801254272461,-19.27692222595215,1,11297.12598891667,walking,0,2016-03-02 02:49:23.682,2016-03-02 02:47:07.556,115,77.7141,3,3,2016-03-02 02:49:34.058,11309.49790675,0,0.9671631,97.37964,192.168.1.101,100.78.239.175,2,1,0.35,0
2016-03-02 02:49:36.927,55,234B9614-18C8-49ED-8B56-CAB6C4F40872,my_iOS_device_1,1456908576.000027,40.79923211600705,-96.68577410289708,365.3967,0.16,267.1875,4,12.9608051047556,-9999,1456908576.885514,2.900732517242432,33.01321411132812,-19.7716064453125,184.9873809814453,181.7102508544922,25,11310.33035875,0.0374298095703125,1.010040283203125,0.0975799560546875,11310.30700675,-0.01701413725618923,0.02551175166241406,0.0008056062297489696,11310.30700675,1.372828529034501,2.763573314020091,-1.460074918524715,0.002583216177299619,-0.00401868112385273,0.00668993266299367,-0.005350745748728514,0.01709442585706711,0.01202150341123343,XArbitraryCorrectedZVertical,-0.5607643383783933,0.4867138718027501,-0.4179442548014118,0.5234267510132675,0.0407816544175148,0.9938766360282898,0.102694071829319,3.212244987487793,32.25581359863281,-19.26735687255859,1,11297.12598891667,walking,0,2016-03-02 02:49:23.682,2016-03-02 02:47:07.556,115,77.7141,3,3,2016-03-02 02:49:34.058,11309.49790675,0,0.9671631,97.37964,192.168.1.101,100.78.239.175,2,1,0.35,0
2016-03-02 02:49:36.942,56,234B9614-18C8-49ED-8B56-CAB6C4F40872,my_iOS_device_1,1456908576.000027,40.79923211600705,-96.68577410289708,365.3967,0.16,267.1875,4,12.9608051047556,-9999,1456908576.885514,2.900732517242432,33.01321411132812,-19.7716064453125,184.9873809814453,181.7102508544922,25,11310.36065875,0.043212890625,1.009674072265625,0.0993499755859375,11310.34198875,-0.03191612145183662,0.03082049697937802,0.001652225140285159,11310.34198875,1.372732826667291,2.763487545230986,-1.459979005204767,-0.0123180178925395,0.00129037001170218,0.007535842712968588,-0.002907561371102929,0.01516716089099646,-0.002040641149505973,XArbitraryCorrectedZVertical,-0.5607736831876543,0.4867468125132904,-0.4179142937269136,0.5234100303309372,0.04082565382122993,0.9938660264015198,0.1027791649103165,3.209876298904419,32.26232147216797,-19.2568531036377,1,11297.12598891667,walking,0,2016-03-02 02:49:23.682,2016-03-02 02:47:07.556,115,77.7141,3,3,2016-03-02 02:49:34.058,11309.49790675,0,0.9671631,97.37964,192.168.1.101,100.78.239.175,2,1,0.35,0
2016-03-02 02:49:37.002,57,234B9614-18C8-49ED-8B56-CAB6C4F40872,my_iOS_device_1,1456908576.000027,40.79923211600705,-96.68577410289708,365.3967,0.16,267.1875,4,12.9608051047556,-9999,1456908576.944319,2.520185947418213,33.18714904785156,-19.87078857421875,184.9664001464844,181.6892700195312,25,11310.39095875,0.04364013671875,1.009170532226562,0.1114044189453125,11310.37703375,-0.02025813378001475,0.03296487428910982,0.005017661809818293,11310.34198875,1.372732826667291,2.763487545230986,-1.459979005204767,-0.0123180178925395,0.00129037001170218,0.007535842712968588,-0.002907561371102929,0.01516716089099646,-0.002040641149505973,XArbitraryCorrectedZVertical,-0.5607736831876543,0.4867468125132904,-0.4179142937269136,0.5234100303309372,0.04082565382122993,0.9938660264015198,0.1027791649103165,3.209876298904419,32.26232147216797,-19.2568531036377,1,11297.12598891667,walking,0,2016-03-02 02:49:23.682,2016-03-02 02:47:07.556,115,77.7141,3,3,2016-03-02 02:49:34.058,11309.49790675,0,0.9671631,97.37964,192.168.1.101,100.78.239.175,2,1,0.35,0
2016-03-02 02:49:37.005,58,234B9614-18C8-49ED-8B56-CAB6C4F40872,my_iOS_device_1,1456908576.000027,40.79923211600705,-96.68577410289708,365.3967,0.16,267.1875,4,12.9608051047556,-9999,1456908576.944319,2.520185947418213,33.18714904785156,-19.87078857421875,184.9664001464844,181.6892700195312,25,11310.42125675,0.0369873046875,1.0174560546875,0.10430908203125,11310.41204575,-0.004247741938676385,0.02871153971214427,0.000989364344964437,11310.37703375,1.369656024399498,2.760490707728632,-1.459930976524577,-0.0006593075813725591,0.003434890881180763,0.01090139243751764,0.002916147466748953,0.01706456393003464,-0.003243879415094852,XArbitraryCorrectedZVertical,-0.5606583165547416,0.4868393835487057,-0.4178638649203096,0.5234877812306363,0.04115123674273491,0.9938607215881348,0.1027006655931473,3.212960481643677,32.26477813720703,-19.25221824645996,1,11297.12598891667,walking,0,2016-03-02 02:49:23.682,2016-03-02 02:47:07.556,115,77.7141,3,3,2016-03-02 02:49:34.058,11309.49790675,0,0.9671631,97.37964,192.168.1.101,100.78.239.175,2,1,0.35,0
2016-03-02 02:49:37.034,59,234B9614-18C8-49ED-8B56-CAB6C4F40872,my_iOS_device_1,1456908576.000027,40.79923211600705,-96.68577410289708,365.3967,0.16,267.1875,4,12.9608051047556,-9999,1456908577.00516,2.935323715209961,32.97843933105469,-19.67236328125,184.9566497802734,181.6795196533203,25,11310.45155475,0.046783447265625,0.9998779296875,0.1192626953125,11310.44705575,-0.006337524446061563,0.02019395159774384,-0.002233859522358465,11310.41204575,1.366155840869898,2.75708046066655,-1.459919868803619,0.01534968987107277,-0.0008182074525393546,0.006873257923871279,-0.001512084854766726,0.01947668194770813,0.001739114755764604,XArbitraryCorrectedZVertical,-0.5605203823903635,0.4869310880781061,-0.4178206327699408,0.523584697274236,0.0415053702890873,0.9938595294952393,0.102569967508316,3.236628770828247,32.25899124145508,-19.25795364379883,1,11297.12598891667,walking,0,2016-03-02 02:49:23.682,2016-03-02 02:47:07.556,115,77.7141,3,3,2016-03-02 02:49:34.058,11309.49790675,0,0.9671631,97.37964,192.168.1.101,100.78.239.175,2,1,0.35,0
2016-03-02 02:49:37.087,60,234B9614-18C8-49ED-8B56-CAB6C4F40872,my_iOS_device_1,1456908576.000027,40.79923211600705,-96.68577410289708,365.3967,0.16,267.1875,4,12.9608051047556,-9999,1456908577.041204,2.935323715209961,33.0479736328125,-19.40777587890625,184.9562072753906,181.6790771484375,25,11310.48185375,0.05810546875,1.0048828125,0.0999603271484375,11310.44705575,-0.006337524446061563,0.02019395159774384,-0.002233859522358465,11310.44705575,1.362898736048325,2.753620680913575,-1.460424292143142,0.01326006464660168,-0.009335622191429138,0.003649991704151034,0.007066243793815374,0.0155605198815465,0.002271113451570272,XArbitraryCorrectedZVertical,-0.5603742322784304,0.4867869730650914,-0.417867515732595,0.5238376675535562,0.04167032986879349,0.9939152002334595,0.1019616723060608,3.234816074371338,32.25283813476562,-19.26856231689453,1,11297.12598891667,walking,0,2016-03-02 02:49:23.682,2016-03-02 02:47:07.556,115,77.7141,3,3,2016-03-02 02:49:34.058,11309.49790675,0,0.9671631,97.37964,192.168.1.101,100.78.239.175,2,1,0.35,0
2016-03-02 02:49:37.094,61,234B9614-18C8-49ED-8B56-CAB6C4F40872,my_iOS_device_1,1456908576.000027,40.79923211600705,-96.68577410289708,365.3967,0.16,267.1875,4,12.9608051047556,-9999,1456908577.074821,3.039107799530029,32.87408447265625,-19.17633056640625,184.9588928222656,181.6817626953125,25,11310.51213275,0.049163818359375,1.009841918945312,0.10760498046875,11310.48206375,-0.01177782992087543,0.01383299133408958,0.006216350616462958,11310.48206375,1.354055496802339,2.744378608617119,-1.460029555752663,0.007818172685801983,-0.01569672860205173,0.01210337970405817,0.0153428241610527,0.01101118139922619,-0.001973658567294478,XArbitraryCorrectedZVertical,-0.5602103031155836,0.4869614041840559,-0.4174669781196685,0.5241701339239632,0.0427626445889473,0.9938716292381287,0.1019339859485626,3.236830234527588,32.24533462524414,-19.28077697753906,1,11297.12598891667,walking,0,2016-03-02 02:49:23.682,2016-03-02 02:47:07.556,115,77.7141,3,3,2016-03-02 02:49:34.058,11309.49790675,0,0.9671631,97.37964,192.168.1.101,100.78.239.175,2,1,0.35,0
2016-03-02 02:49:37.125,62,234B9614-18C8-49ED-8B56-CAB6C4F40872,my_iOS_device_1,1456908577.000027,40.79922930806949,-96.68577368380193,365.7045,0.19,253.828125,4,13.65627784533347,-9999,1456908577.121503,3.142890930175781,32.70016479492188,-19.14324951171875,184.9686126708984,181.6914825439453,25,11310.54242175,0.0478973388671875,1.013839721679688,0.1085052490234375,11310.51706575,-0.01821122816617985,0.02341051756234154,0.01038100192912887,11310.51706575,1.34677838243945,2.736804077428316,-1.459763950391771,0.001384363742545247,-0.006119185127317905,0.01626958511769772,0.005526346620172262,0.0159996822476387,0.005755181889981031,XArbitraryCorrectedZVertical,-0.5600575732375845,0.4870938451310257,-0.4171666049557664,0.5244493535169766,0.0436374731361866,0.9938422441482544,0.101849801838398,3.262742519378662,32.2410888671875,-19.28350830078125,1,11297.12598891667,walking,0,2016-03-02 02:49:23.682,2016-03-02 02:47:07.556,115,77.7141,3,3,2016-03-02 02:49:34.058,11309.49790675,0,0.9671631,97.37964,192.168.1.101,100.78.239.175,2,1,0.35,0
2016-03-02 02:49:37.162,63,234B9614-18C8-49ED-8B56-CAB6C4F40872,my_iOS_device_1,1456908577.000027,40.79922930806949,-96.68577368380193,365.7045,0.19,253.828125,4,13.65627784533347,-9999,1456908577.121503,3.142890930175781,32.70016479492188,-19.14324951171875,184.9686126708984,181.6914825439453,25,11310.57271775,0.0465850830078125,1.00140380859375,0.10162353515625,11310.55209175,-0.0106947223055402,0.02021126214482935,0.005163070405336619,11310.55209175,1.340417658984123,2.730187613894473,-1.459492677025118,0.008899834007024765,-0.009318402968347073,0.01105303969234228,0.00347913010045886,0.02002758160233498,0.006699299905449152,XArbitraryCorrectedZVertical,-0.5599269513627479,0.4872214934576059,-0.416893449908513,0.5246874087244067,0.04441820830106735,0.9938121438026428,0.1018059477210045,3.276018142700195,32.23735046386719,-19.28750419616699,1,11297.12598891667,walking,0,2016-03-02 02:49:23.682,2016-03-02 02:47:07.556,115,77.7141,3,3,2016-03-02 02:49:34.058,11309.49790675,0,0.9671631,97.37964,192.168.1.101,100.78.239.175,2,1,0.35,0
2016-03-02 02:49:37.185,64,234B9614-18C8-49ED-8B56-CAB6C4F40872,my_iOS_device_1,1456908577.000027,40.79922930806949,-96.68577368380193,365.7045,0.19,253.828125,4,13.65627784533347,-9999,1456908577.179397,3.108296394348145,32.73492431640625,-18.7794189453125,184.9668273925781,181.689697265625,25,11310.60301975,0.0652008056640625,1.009262084960938,0.1101837158203125,11310.58710975,-0.02358069355599761,0.01384470924288593,0.01350515620390082,11310.55209175,1.340417658984123,2.730187613894473,-1.459492677025118,0.008899834007024765,-0.009318402968347073,0.01105303969234228,0.00347913010045886,0.02002758160233498,0.006699299905449152,XArbitraryCorrectedZVertical,-0.5599269513627479,0.4872214934576059,-0.416893449908513,0.5246874087244067,0.04441820830106735,0.9938121438026428,0.1018059477210045,3.276018142700195,32.23735046386719,-19.28750419616699,1,11297.12598891667,walking,0,2016-03-02 02:49:23.682,2016-03-02 02:47:07.556,115,77.7141,3,3,2016-03-02 02:49:34.058,11309.49790675,0,0.9671631,97.37964,192.168.1.101,100.78.239.175,2,1,0.35,0
2016-03-02 02:49:37.240,65,234B9614-18C8-49ED-8B56-CAB6C4F40872,my_iOS_device_1,1456908577.000027,40.79922930806949,-96.68577368380193,365.7045,0.19,253.828125,4,13.65627784533347,-9999,1456908577.179397,3.108296394348145,32.73492431640625,-18.7794189453125,184.9668273925781,181.689697265625,25,11310.63333875,0.06890869140625,1.013092041015625,0.10992431640625,11310.62212275,-0.01830523775265964,-0.004223240856647656,0.0157225041275008,11310.58710975,1.333946445337956,2.723393937085836,-1.459317577096669,-0.003986869938671589,-0.01568481884896755,0.01939605548977852,0.00354182836599648,0.007763719651848078,0.0002525945601519197,XArbitraryCorrectedZVertical,-0.5597908966558557,0.4873033765628806,-0.4166322686663676,0.5249639263011886,0.04517948627471924,0.9937926530838013,0.10166085511446,3.308053731918335,32.23264312744141,-19.28990745544434,1,11297.12598891667,walking,0,2016-03-02 02:49:23.682,2016-03-02 02:47:07.556,115,77.7141,3,3,2016-03-02 02:49:34.058,11309.49790675,0,0.9671631,97.37964,192.168.1.101,100.78.239.175,2,1,0.35,0
2016-03-02 02:49:37.244,66,234B9614-18C8-49ED-8B56-CAB6C4F40872,my_iOS_device_1,1456908577.000027,40.79922930806949,-96.68577368380193,365.7045,0.19,253.828125,4,13.65627784533347,-9999,1456908577.23881,2.347213268280029,32.5262451171875,-19.7054443359375,184.9280090332031,181.65087890625,25,11310.66363875,0.0593719482421875,1.016311645507812,0.108734130859375,11310.65713175,-0.007605721757157296,-0.01805410166186517,0.01055623792885608,11310.62212275,1.322201621800044,2.71074397209161,-1.458206856079371,0.001287283375859261,-0.03375310078263283,0.02161787077784538,0.02422891557216644,0.01853853277862072,0.01025109831243753,XArbitraryCorrectedZVertical,-0.5597152198895429,0.487607348315149,-0.4158091412258424,0.5254147928694934,0.04692281782627106,0.9936684966087341,0.10208410769701,3.338794708251953,32.23236083984375,-19.28508377075195,1,11310.66953675,stationary,1,2016-03-02 02:49:37.255,2016-03-02 02:47:07.556,115,77.7141,3,3,2016-03-02 02:49:34.058,11309.49790675,0,0.9671631,97.37964,192.168.1.101,100.78.239.175,2,1,0.35,0
2016-03-02 02:49:37.275,67,234B9614-18C8-49ED-8B56-CAB6C4F40872,my_iOS_device_1,1456908577.000027,40.79922930806949,-96.68577368380193,365.7045,0.19,253.828125,4,13.65627784533347,-9999,1456908577.23881,2.347213268280029,32.5262451171875,-19.7054443359375,184.9280090332031,181.65087890625,25,11310.69392375,0.0615692138671875,0.998931884765625,0.0843963623046875,11310.69214875,-0.01387773244040291,-0.02765293317883777,0.001944107595757844,11310.65713175,1.308241531107741,2.6952859176025,-1.457380805761138,0.01198475621640682,-0.04758431389927864,0.01645704358816147,0.01316226832568645,0.02000497095286846,0.007608446292579174,XArbitraryCorrectedZVertical,-0.559632637852856,0.4877036033491792,-0.4148788043877968,0.5261483475217118,0.04884945228695869,0.9935753345489502,0.102086991071701,3.363658666610718,32.23285675048828,-19.27993202209473,1,11310.66953675,stationary,1,2016-03-02 02:49:37.255,2016-03-02 02:47:07.556,115,77.7141,3,3,2016-03-02 02:49:34.058,11309.49790675,0,0.9671631,97.37964,192.168.1.101,100.78.239.175,2,1,0.35,0
2016-03-02 02:49:37.312,68,234B9614-18C8-49ED-8B56-CAB6C4F40872,my_iOS_device_1,1456908577.000027,40.79922930806949,-96.68577368380193,365.7045,0.19,253.828125,4,13.65627784533347,-9999,1456908577.297202,2.693158626556396,33.01316833496094,-19.90386962890625,184.8917694091797,181.6146392822266,25,11310.72422475,0.0563812255859375,1.008087158203125,0.1078033447265625,11310.69214875,-0.01387773244040291,-0.02765293317883777,0.001944107595757844,11310.69214875,1.30030575600686,2.6854942482717,-1.457406806022968,0.005712856072932482,-0.05718325078487396,0.007846878841519356,0.008148081600666046,0.01160969492048025,-0.00680825300514698,XArbitraryCorrectedZVertical,-0.5597244165729526,0.4873385613350987,-0.4142365758985564,0.5268944517792334,0.04983531683683395,0.993578314781189,0.1015805900096893,3.378341197967529,32.22695159912109,-19.28723335266113,1,11310.66953675,stationary,1,2016-03-02 02:49:37.255,2016-03-02 02:47:07.556,115,77.7141,3,3,2016-03-02 02:49:34.058,11309.49790675,0,0.9671631,97.37964,192.168.1.101,100.78.239.175,2,1,0.35,0
2016-03-02 02:49:37.335,69,234B9614-18C8-49ED-8B56-CAB6C4F40872,my_iOS_device_1,1456908577.000027,40.79922930806949,-96.68577368380193,365.7045,0.19,253.828125,4,13.65627784533347,-9999,1456908577.297202,2.693158626556396,33.01316833496094,-19.90386962890625,184.8917694091797,181.6146392822266,25,11310.75451875,0.0560760498046875,1.011688232421875,0.106109619140625,11310.72716075,-0.0425397373562717,-0.02981302313900104,-0.002734001175075346,11310.72716075,1.295181560247652,2.678274944057775,-1.456836789849498,-0.02294713445007801,-0.05934365466237068,0.003171677934005857,0.005560765974223614,0.01457352191209793,0.006078542210161686,XArbitraryCorrectedZVertical,-0.5600429255129374,0.4870465304373177,-0.4133752182854885,0.5275021589333083,0.05082045868039131,0.9935136437416077,0.1017248034477234,3.37205982208252,32.21875381469727,-19.30202484130859,1,11310.66953675,stationary,1,2016-03-02 02:49:37.255,2016-03-02 02:47:07.556,115,77.7141,3,3,2016-03-02 02:49:34.058,11309.49790675,0,0.9671631,97.37964,192.168.1.101,100.78.239.175,2,1,0.35,0
2016-03-02 02:49:37.386,70,234B9614-18C8-49ED-8B56-CAB6C4F40872,my_iOS_device_1,1456908577.000027,40.79922930806949,-96.68577368380193,365.7045,0.19,253.828125,4,13.65627784533347,-9999,1456908577.355998,2.969915390014648,32.66537475585938,-19.9039306640625,184.8590698242188,181.5819396972656,25,11310.78481775,0.0528411865234375,1.007537841796875,0.1043548583984375,11310.76217175,-0.03826882591611163,-0.02768595637635475,-0.003738811854362243,11310.76217175,1.296130707953678,2.677047174988868,-1.45590890732996,-0.01867749728262424,-0.05721643567085266,0.002167834900319576,0.004717745818197727,0.01828053593635559,0.00362316332757473,XArbitraryCorrectedZVertical,-0.5606453354510362,0.486744322760126,-0.4124692511271492,0.5278502524129219,0.05135830491781235,0.993407666683197,0.1024864539504051,3.351655006408691,32.22035217285156,-19.30290985107422,1,11310.66953675,stationary,1,2016-03-02 02:49:37.255,2016-03-02 02:47:07.556,115,77.7141,3,3,2016-03-02 02:49:34.058,11309.49790675,0,0.9671631,97.37964,192.168.1.101,100.78.239.175,2,1,0.35,0
2016-03-02 02:49:37.396,71,234B9614-18C8-49ED-8B56-CAB6C4F40872,my_iOS_device_1,1456908577.000027,40.79922930806949,-96.68577368380193,365.7045,0.19,253.828125,4,13.65627784533347,-9999,1456908577.355998,2.969915390014648,32.66537475585938,-19.9039306640625,184.8590698242188,181.5819396972656,25,11310.81512375,0.048980712890625,1.01324462890625,0.10357666015625,11310.79718675,-0.04253734051129063,-0.02662282246919512,-0.002735599071729393,11310.79718675,1.296757489597163,2.675623590442452,-1.455226464579539,-0.02294568158686161,-0.05615321174263954,0.003171844640746713,0.00136814930010587,0.01501732412725687,6.949773523956537e-05,XArbitraryCorrectedZVertical,-0.5611776685054753,0.4864042197154549,-0.4116752992607099,0.5282177651237778,0.05180872976779938,0.9933292269706726,0.1030188798904419,3.316886425018311,32.23740386962891,-19.28043365478516,1,11310.66953675,stationary,1,2016-03-02 02:49:37.255,2016-03-02 02:47:07.556,115,77.7141,3,3,2016-03-02 02:49:34.058,11310.81003975,0,0.9697571,97.37961,192.168.1.101,100.78.239.175,2,1,0.35,0
2016-03-02 02:49:37.426,72,234B9614-18C8-49ED-8B56-CAB6C4F40872,my_iOS_device_1,1456908577.000027,40.79922930806949,-96.68577368380193,365.7045,0.19,253.828125,4,13.65627784533347,-9999,1456908577.416073,2.727753162384033,32.90884399414062,-19.407958984375,184.8303985595703,181.5532684326172,25,11310.84542675,0.0528564453125,1.005950927734375,0.1057891845703125,11310.83219975,-0.03406236297433148,-0.01384683977175799,0.0005781722726562026,11310.79718675,1.296757489597163,2.675623590442452,-1.455226464579539,-0.02294568158686161,-0.05615321174263954,0.003171844640746713,0.00136814930010587,0.01501732412725687,6.949773523956537e-05,XArbitraryCorrectedZVertical,-0.5611776685054753,0.4864042197154549,-0.4116752992607099,0.5282177651237778,0.05180872976779938,0.9933292269706726,0.1030188798904419,3.316886425018311,32.23740386962891,-19.28043365478516,1,11310.66953675,stationary,1,2016-03-02 02:49:37.255,2016-03-02 02:47:07.556,115,77.7141,3,3,2016-03-02 02:49:34.058,11310.81003975,0,0.9697571,97.37961,192.168.1.101,100.78.239.175,2,1,0.35,0
2016-03-02 02:49:37.467,73,234B9614-18C8-49ED-8B56-CAB6C4F40872,my_iOS_device_1,1456908577.000027,40.79922930806949,-96.68577368380193,365.7045,0.19,253.828125,4,13.65627784533347,-9999,1456908577.416073,2.727753162384033,32.90884399414062,-19.407958984375,184.8303985595703,181.5532684326172,25,11310.87572475,0.0504608154296875,1.008926391601562,0.1045379638671875,11310.86720875,-0.02652401919275318,-0.007478422657051509,-0.005710083693238895,11310.83219975,1.299113525325998,2.676284634052587,-1.454614528863022,-0.01447067223489285,-0.04337696731090546,0.006484785117208958,-0.00257487571798265,0.01977252215147018,0.002360715297982097,XArbitraryCorrectedZVertical,-0.5616921663430823,0.4861070542611307,-0.4110329622788616,0.5284446479875072,0.05201335251331329,0.9932584762573242,0.1035963147878647,3.278455257415771,32.25209045410156,-19.26243591308594,1,11310.66953675,stationary,1,2016-03-02 02:49:37.255,2016-03-02 02:47:07.556,115,77.7141,3,3,2016-03-02 02:49:34.058,11310.81003975,0,0.9697571,97.37961,192.168.1.101,100.78.239.175,2,1,0.35,0
2016-03-02 02:49:37.485,74,234B9614-18C8-49ED-8B56-CAB6C4F40872,my_iOS_device_1,1456908577.000027,40.79922930806949,-96.68577368380193,365.7045,0.19,253.828125,4,13.65627784533347,-9999,1456908577.473709,2.55478048324585,32.87408447265625,-19.6392822265625,184.7881774902344,181.5110473632812,25,11310.90602875,0.0533599853515625,1.008392333984375,0.1006622314453125,11310.90219775,-0.01808313011774703,-0.001076982344828044,-0.0002620550512637971,11310.86720875,1.298691197236843,2.674430244187161,-1.454328392337153,-0.006932459771633148,-0.03700835630297661,0.0001968149008462206,0.002171031897887588,0.0148771433159709,0.001715314807370305,XArbitraryCorrectedZVertical,-0.5620067219599714,0.4858242090043973,-0.4105275388152534,0.5287631060232411,0.05233336240053177,0.9932252764701843,0.1037534326314926,3.246139287948608,32.26261138916016,-19.25028038024902,1,11310.66953675,stationary,1,2016-03-02 02:49:37.255,2016-03-02 02:47:07.556,115,77.7141,3,3,2016-03-02 02:49:34.058,11310.81003975,0,0.9697571,97.37961,192.168.1.101,100.78.239.175,2,1,0.35,0
2016-03-02 02:49:37.515,75,234B9614-18C8-49ED-8B56-CAB6C4F40872,my_iOS_device_1,1456908577.000027,40.79922930806949,-96.68577368380193,365.7045,0.19,253.828125,4,13.65627784533347,-9999,1456908577.473709,2.55478048324585,32.87408447265625,-19.6392822265625,184.7881774902344,181.5110473632812,25,11310.93633275,0.0539398193359375,1.008773803710938,0.103424072265625,11310.90219775,-0.01808313011774703,-0.001076982344828044,-0.0002620550512637971,11310.90219775,1.299861683539892,2.674552154135156,-1.454548310616616,0.001509225694462657,-0.03060660883784294,0.005643086507916451,-0.007468337658792734,0.01628593727946281,-0.005206621717661619,XArbitraryCorrectedZVertical,-0.5622380432762758,0.4854593399512723,-0.4103261440504114,0.5290085703045427,0.0522223673760891,0.9932507872581482,0.1035647764801979,3.234999656677246,32.26453399658203,-19.24893569946289,1,11310.66953675,stationary,1,2016-03-02 02:49:37.255,2016-03-02 02:47:07.556,115,77.7141,3,3,2016-03-02 02:49:34.058,11310.81003975,0,0.9697571,97.37961,192.168.1.101,100.78.239.175,2,1,0.35,0
2016-03-02 02:49:37.548,76,234B9614-18C8-49ED-8B56-CAB6C4F40872,my_iOS_device_1,1456908577.000027,40.79922930806949,-96.68577368380193,365.7045,0.19,253.828125,4,13.65627784533347,-9999,1456908577.532941,2.485588550567627,32.6654052734375,-19.11016845703125,184.7355499267578,181.4584197998047,25,11310.96663775,0.049591064453125,1.006576538085938,0.108795166015625,11310.93723675,-0.03186046138505396,0.007411044681472504,-0.003663710711622008,11310.93723675,1.298110865487426,2.671787442327598,-1.454365769879404,-0.01226718816906214,-0.02211849950253963,0.002242014510557055,0.001349246595054865,0.01554418727755547,-0.0001575918140588328,XArbitraryCorrectedZVertical,-0.5624031979458148,0.4852766993987501,-0.4099507071664347,0.529291588497977,0.05259057134389877,0.9932296276092529,0.1035816669464111,3.205427646636963,32.26119995117188,-19.25947380065918,1,11310.66953675,stationary,1,2016-03-02 02:49:37.255,2016-03-02 02:47:07.556,115,77.7141,3,3,2016-03-02 02:49:34.058,11310.81003975,0,0.9697571,97.37961,192.168.1.101,100.78.239.175,2,1,0.35,0
2016-03-02 02:49:37.576,77,234B9614-18C8-49ED-8B56-CAB6C4F40872,my_iOS_device_1,1456908577.000027,40.79922930806949,-96.68577368380193,365.7045,0.19,253.828125,4,13.65627784533347,-9999,1456908577.532941,2.485588550567627,32.6654052734375,-19.11016845703125,184.7355499267578,181.4584197998047,25,11310.99694175,0.0551910400390625,1.007614135742188,0.1071319580078125,11310.97223175,-0.02975762938832739,0.01379890287213656,-0.001504952332003777,11310.97223175,1.299567890095191,2.672627596385988,-1.453924966945288,-0.01016527600586414,-0.01573034562170506,0.004400224424898624,-0.003110338002443314,0.01339822541922331,0.004778814502060413,XArbitraryCorrectedZVertical,-0.5626402257949423,0.4852258774897971,-0.409653252490112,0.5293165752703587,0.05270140245556831,0.9931783080101013,0.1040163487195969,3.199824810028076,32.26168060302734,-19.25959968566895,1,11310.99717375,unknown,1,2016-03-02 02:49:37.579,2016-03-02 02:47:07.556,115,77.7141,3,3,2016-03-02 02:49:34.058,11310.81003975,0,0.9697571,97.37961,192.168.1.101,100.78.239.175,2,1,0.35,0
2016-03-02 02:49:37.628,78,234B9614-18C8-49ED-8B56-CAB6C4F40872,my_iOS_device_1,1456908577.000027,40.79922930806949,-96.68577368380193,365.7045,0.19,253.828125,4,13.65627784533347,-9999,1456908577.591096,3.108296394348145,32.87408447265625,-19.24249267578125,184.7056579589844,181.4285278320312,25,11311.02724575,0.05560302734375,1.009567260742188,0.101318359375,11311.00725175,-0.03397075023283275,0.01059671797742529,-0.004761732029061678,11311.00725175,1.300914971900924,2.673258564132497,-1.453418281774713,-0.01437902264297009,-0.01893223822116852,0.001143194269388914,0.002373904455453157,0.01428140979260206,0.001839888631366193,XArbitraryCorrectedZVertical,-0.5629019660619772,0.4851707769249022,-0.4093040268702977,0.5293589589393962,0.05286291241645813,0.9931191205978394,0.1044986099004745,3.180923938751221,32.27668762207031,-19.23756790161133,1,11310.99717375,unknown,1,2016-03-02 02:49:37.579,2016-03-02 02:47:07.556,115,77.7141,3,3,2016-03-02 02:49:34.058,11310.81003975,0,0.9697571,97.37961,192.168.1.101,100.78.239.175,2,1,0.35,0
2016-03-02 02:49:37.637,79,234B9614-18C8-49ED-8B56-CAB6C4F40872,my_iOS_device_1,1456908577.000027,40.79922930806949,-96.68577368380193,365.7045,0.19,253.828125,4,13.65627784533347,-9999,1456908577.591096,3.108296394348145,32.87408447265625,-19.24249267578125,184.7056579589844,181.4285278320312,25,11311.05753475,0.0647125244140625,1.006622314453125,0.0939178466796875,11311.04226875,-0.04250618152653671,0.01484978623828183,-0.002756371728232012,11311.04226875,1.301602626828809,2.673503570739432,-1.452961808497439,-0.02291321754455566,-0.0146791273728013,0.003149099415168166,0.004636385478079319,0.01583033241331577,-0.007977031171321869,XArbitraryCorrectedZVertical,-0.5630765017532436,0.4851833801493372,-0.4090376427069421,0.529367686630886,0.05304183810949326,0.9930655360221863,0.1049161180853844,3.172102928161621,32.28641510009766,-19.22269821166992,1,11310.99717375,unknown,1,2016-03-02 02:49:37.579,2016-03-02 02:47:07.556,115,77.7141,3,3,2016-03-02 02:49:34.058,11310.81003975,0,0.9697571,97.37961,192.168.1.101,100.78.239.175,2,1,0.35,0
2016-03-02 02:49:37.667,80,234B9614-18C8-49ED-8B56-CAB6C4F40872,my_iOS_device_1,1456908577.000027,40.79922930806949,-96.68577368380193,365.7045,0.19,253.828125,4,13.65627784533347,-9999,1456908577.650386,3.385056018829346,33.15234375,-19.17633056640625,184.7012939453125,181.4241638183594,25,11311.08784275,0.0525360107421875,1.008346557617188,0.1038970947265625,11311.07726875,-0.0573682183058329,0.01483274200730533,-0.005103681913027852,11311.04226875,1.301602626828809,2.673503570739432,-1.452961808497439,-0.02291321754455566,-0.0146791273728013,0.003149099415168166,0.004636385478079319,0.01583033241331577,-0.007977031171321869,XArbitraryCorrectedZVertical,-0.5630765017532436,0.4851833801493372,-0.4090376427069421,0.529367686630886,0.05304183810949326,0.9930655360221863,0.1049161180853844,3.172102928161621,32.28641510009766,-19.22269821166992,1,11310.99717375,unknown,1,2016-03-02 02:49:37.579,2016-03-02 02:47:07.556,115,77.7141,3,3,2016-03-02 02:49:34.058,11310.81003975,0,0.9697571,97.37961,192.168.1.101,100.78.239.175,2,1,0.35,0
2016-03-02 02:49:37.706,81,234B9614-18C8-49ED-8B56-CAB6C4F40872,my_iOS_device_1,1456908577.000027,40.79922930806949,-96.68577368380193,365.7045,0.19,253.828125,4,13.65627784533347,-9999,1456908577.650386,3.385056018829346,33.15234375,-19.17633056640625,184.7012939453125,181.4241638183594,25,11311.11814375,0.0513916015625,1.008148193359375,0.108123779296875,11311.11230075,-0.04768949195615792,0.01907302709492949,-0.0124255106979827,11311.07726875,1.300522603198801,2.671742810045929,-1.452130808020174,-0.0377906821668148,-0.01470288913697004,0.0008036331855691969,0.005054688081145287,0.006956200581043959,0.006624279543757439,XArbitraryCorrectedZVertical,-0.5632794608037565,0.485278701219686,-0.4085484521629523,0.5294421530388518,0.05360009893774986,0.9929674863815308,0.1055583357810974,3.170462608337402,32.29232025146484,-19.21305084228516,1,11310.99717375,unknown,1,2016-03-02 02:49:37.579,2016-03-02 02:47:07.556,115,77.7141,3,3,2016-03-02 02:49:34.058,11310.81003975,0,0.9697571,97.37961,192.168.1.101,100.78.239.175,2,1,0.35,0
2016-03-02 02:49:37.728,82,234B9614-18C8-49ED-8B56-CAB6C4F40872,my_iOS_device_1,1456908577.000027,40.79922930806949,-96.68577368380193,365.7045,0.19,253.828125,4,13.65627784533347,-9999,1456908577.711045,2.935323715209961,32.90887451171875,-19.0771484375,184.6795959472656,181.4024658203125,25,11311.14844475,0.0550079345703125,1.013778686523438,0.11004638671875,11311.11230075,-0.04768949195615792,0.01907302709492949,-0.0124255106979827,11311.11230075,1.305924540831708,2.676675181647262,-1.451229313960736,-0.02811154723167419,-0.01046238839626312,-0.006518454290926456,-0.0005321161588653922,0.01499789953231812,0.001914240187034011,XArbitraryCorrectedZVertical,-0.5636975776516024,0.4853409153792358,-0.4082056443286042,0.5292044867032253,0.053480114787817,0.9928603768348694,0.1066215261816978,3.174376010894775,32.29293823242188,-19.21136665344238,1,11310.99717375,unknown,1,2016-03-02 02:49:37.579,2016-03-02 02:47:07.556,115,77.7141,3,3,2016-03-02 02:49:34.058,11310.81003975,0,0.9697571,97.37961,192.168.1.101,100.78.239.175,2,1,0.35,0
2016-03-02 02:49:37.758,83,234B9614-18C8-49ED-8B56-CAB6C4F40872,my_iOS_device_1,1456908577.000027,40.79922930806949,-96.68577368380193,365.7045,0.19,253.828125,4,13.65627784533347,-9999,1456908577.711045,2.935323715209961,32.90887451171875,-19.0771484375,184.6795959472656,181.4024658203125,25,11311.17873075,0.0543670654296875,1.005325317382812,0.1053924560546875,11311.14731275,-0.03821982375205417,0.01803732374699767,-0.004827245791877627,11311.14731275,1.310646872703951,2.680963736952608,-1.45054447203923,-0.01864181831479073,-0.01149790268391371,0.001079533132724464,0.00236997427418828,0.02452501282095909,-0.0003727739676833153,XArbitraryCorrectedZVertical,-0.5640564766022305,0.485355301825766,-0.4079358379752447,0.5290168941424516,0.05332460626959801,0.992778480052948,0.1074589565396309,3.152162075042725,32.33140182495117,-19.15023040771484,1,11310.99717375,unknown,1,2016-03-02 02:49:37.579,2016-03-02 02:47:07.556,115,77.7141,3,3,2016-03-02 02:49:34.058,11310.81003975,0,0.9697571,97.37961,192.168.1.101,100.78.239.175,2,1,0.35,0
2016-03-02 02:49:37.788,84,234B9614-18C8-49ED-8B56-CAB6C4F40872,my_iOS_device_1,1456908577.000027,40.79922930806949,-96.68577368380193,365.7045,0.19,253.828125,4,13.65627784533347,-9999,1456908577.771849,2.589375495910645,32.90887451171875,-20.0030517578125,184.6275329589844,181.3504028320312,25,11311.20902875,0.0540618896484375,1.0096435546875,0.1037139892578125,11311.18232275,-0.02973153040964462,0.009539443024663832,-0.003633883307413121,11311.18232275,1.311208796268414,2.680922498875257,-1.450187940405495,-0.01015361864119768,-0.01999554969370365,0.002272834302857518,0.0008806806872598827,0.01258969679474831,-0.002381352242082357,XArbitraryCorrectedZVertical,-0.5642472644212543,0.4852957126724657,-0.4076561396915777,0.5290837056899503,0.05348638445138931,0.9927356243133545,0.1077738106250763,3.14191460609436,32.34518814086914,-19.12862205505371,1,11310.99717375,unknown,1,2016-03-02 02:49:37.579,2016-03-02 02:47:07.556,115,77.7141,3,3,2016-03-02 02:49:34.058,11310.81003975,0,0.9697571,97.37961,192.168.1.101,100.78.239.175,2,1,0.35,0
2016-03-02 02:49:37.819,85,234B9614-18C8-49ED-8B56-CAB6C4F40872,my_iOS_device_1,1456908577.000027,40.79922930806949,-96.68577368380193,365.7045,0.19,253.828125,4,13.65627784533347,-9999,1456908577.771849,2.589375495910645,32.90887451171875,-20.0030517578125,184.6275329589844,181.3504028320312,25,11311.23934675,0.0554962158203125,1.011474609375,0.112762451171875,11311.21733075,-0.02866866281859399,0.008476841749722215,-0.003617904340872645,11311.21733075,1.311132453536097,2.680252798047587,-1.45006010051679,-0.009089590050280094,-0.02105808071792126,0.002288933144882321,0.0004468468250706792,0.01692332327365875,-0.004137617535889149,XArbitraryCorrectedZVertical,-0.5643817051733282,0.485179445470878,-0.4074445524502535,0.5292099141520543,0.05361504107713699,0.9927202463150024,0.1078516095876694,3.137113094329834,32.3476448059082,-19.1252555847168,1,11310.99717375,unknown,1,2016-03-02 02:49:37.579,2016-03-02 02:47:07.556,115,77.7141,3,3,2016-03-02 02:49:34.058,11310.81003975,0,0.9697571,97.37961,192.168.1.101,100.78.239.175,2,1,0.35,0
2016-03-02 02:49:37.866,86,234B9614-18C8-49ED-8B56-CAB6C4F40872,my_iOS_device_1,1456908577.000027,40.79922930806949,-96.68577368380193,365.7045,0.19,253.828125,4,13.65627784533347,-9999,1456908577.826721,2.485588550567627,32.73495483398438,-20.102294921875,184.5704498291016,181.2933197021484,25,11311.26964675,0.053009033203125,1.00775146484375,0.1094512939453125,11311.25235175,-0.02545635791174041,-0.002160622592381286,-0.005697300520006514,11311.21733075,1.311132453536097,2.680252798047587,-1.45006010051679,-0.009089590050280094,-0.02105808071792126,0.002288933144882321,0.0004468468250706792,0.01692332327365875,-0.004137617535889149,XArbitraryCorrectedZVertical,-0.5643817051733282,0.485179445470878,-0.4074445524502535,0.5292099141520543,0.05361504107713699,0.9927202463150024,0.1078516095876694,3.137113094329834,32.3476448059082,-19.1252555847168,1,11310.99717375,unknown,1,2016-03-02 02:49:37.579,2016-03-02 02:47:07.556,115,77.7141,3,3,2016-03-02 02:49:34.058,11310.81003975,0,0.9697571,97.37961,192.168.1.101,100.78.239.175,2,1,0.35,0
2016-03-02 02:49:37.880,87,234B9614-18C8-49ED-8B56-CAB6C4F40872,my_iOS_device_1,1456908577.000027,40.79922930806949,-96.68577368380193,365.7045,0.19,253.828125,4,13.65627784533347,-9999,1456908577.826721,2.485588550567627,32.73495483398438,-20.102294921875,184.5704498291016,181.2933197021484,25,11311.29994975,0.0514678955078125,1.005645751953125,0.109619140625,11311.28736075,-0.02431545970075047,0.003142530086293501,-0.01101217110747765,11311.25235175,1.310775660655453,2.678957078956276,-1.449712560762578,-0.005877594463527203,-0.03169536963105202,0.0002101956051774323,0.00558529794216156,0.0152715165168047,0.005617714021354914,XArbitraryCorrectedZVertical,-0.5646037650125123,0.4850443067257956,-0.4070568086960065,0.529395280995973,0.05390872061252594,0.9926782846450806,0.1080907806754112,3.125675439834595,32.34892272949219,-19.12497138977051,1,11310.99717375,unknown,1,2016-03-02 02:49:37.579,2016-03-02 02:47:07.556,115,77.7141,3,3,2016-03-02 02:49:34.058,11310.81003975,0,0.9697571,97.37961,192.168.1.101,100.78.239.175,2,1,0.35,0
2016-03-02 02:49:37.910,88,234B9614-18C8-49ED-8B56-CAB6C4F40872,my_iOS_device_1,1456908577.000027,40.79922930806949,-96.68577368380193,365.7045,0.19,253.828125,4,13.65627784533347,-9999,1456908577.884502,2.831540107727051,32.94363403320312,-20.30078125,184.5325469970703,181.2554168701172,25,11311.33025175,0.051116943359375,1.006820678710938,0.110687255859375,11311.28736075,-0.02431545970075047,0.003142530086293501,-0.01101217110747765,11311.28736075,1.312815035010659,2.679960649788163,-1.449616268792718,-0.00473691476508975,-0.02639201655983925,-0.005104848183691502,-0.001230487134307623,0.01610712707042694,0.001495542353950441,XArbitraryCorrectedZVertical,-0.5649064416211328,0.4847637745180244,-0.4067680343544569,0.5295512830287483,0.05384279042482376,0.9926666617393494,0.1082304120063782,3.117666244506836,32.35191345214844,-19.12121391296387,1,11310.99717375,unknown,1,2016-03-02 02:49:37.579,2016-03-02 02:47:07.556,115,77.7141,3,3,2016-03-02 02:49:34.058,11310.81003975,0,0.9697571,97.37961,192.168.1.101,100.78.239.175,2,1,0.35,0
2016-03-02 02:49:37.949,89,234B9614-18C8-49ED-8B56-CAB6C4F40872,my_iOS_device_1,1456908577.000027,40.79922930806949,-96.68577368380193,365.7045,0.19,253.828125,4,13.65627784533347,-9999,1456908577.884502,2.831540107727051,32.94363403320312,-20.30078125,184.5325469970703,181.2554168701172,25,11311.36055275,0.0542449951171875,1.008255004882812,0.1161651611328125,11311.35738875,-0.02973552515127973,0.004222441908320632,-0.003631220146323041,11311.32237775,1.316346829177772,2.682596546667527,-1.449482499116223,-0.004797390662133694,-0.02744328230619431,-0.0008433687617070973,-0.00672589335590601,0.01203395053744316,0.005614222958683968,XArbitraryCorrectedZVertical,-0.565243646388076,0.4845050267366516,-0.4065328144399125,0.5296088840534926,0.05361615121364594,0.9926505088806152,0.1084910035133362,3.076815605163574,32.35990142822266,-19.11431121826172,1,11310.99717375,unknown,1,2016-03-02 02:49:37.579,2016-03-02 02:47:07.556,115,77.7141,3,3,2016-03-02 02:49:34.058,11310.81003975,0,0.9697571,97.37961,192.168.1.101,100.78.239.175,2,1,0.35,0
2016-03-02 02:49:37.970,90,234B9614-18C8-49ED-8B56-CAB6C4F40872,my_iOS_device_1,1456908577.000027,40.79922930806949,-96.68577368380193,365.7045,0.19,253.828125,4,13.65627784533347,-9999,1456908577.9495,2.623970031738281,33.22190856933594,-20.16851806640625,184.4808349609375,181.2037048339844,25,11311.39085375,0.0530242919921875,1.00885009765625,0.1158294677734375,11311.35738875,-0.02973552515127973,0.004222441908320632,-0.003631220146323041,11311.35738875,1.317160758861334,2.682422357078802,-1.449194649819696,-0.01015808992087841,-0.02531148865818977,0.00227461289614439,0.001642977353185415,0.01849277690052986,0.001934203552082181,XArbitraryCorrectedZVertical,-0.5655136235254903,0.4843172910004064,-0.4061717261757345,0.5297694140855215,0.05376168712973595,0.9926156401634216,0.1087377965450287,3.0510573387146,32.36841201782227,-19.10403060913086,1,11310.99717375,unknown,1,2016-03-02 02:49:37.579,2016-03-02 02:47:07.556,115,77.7141,3,3,2016-03-02 02:49:34.058,11310.81003975,0,0.9697571,97.37961,192.168.1.101,100.78.239.175,2,1,0.35,0
2016-03-02 02:49:38.002,91,234B9614-18C8-49ED-8B56-CAB6C4F40872,my_iOS_device_1,1456908577.000027,40.79922930806949,-96.68577368380193,365.7045,0.19,253.828125,4,13.65627784533347,-9999,1456908577.9495,2.623970031738281,33.22190856933594,-20.16851806640625,184.4808349609375,181.2037048339844,25,11311.42115475,0.0526123046875,1.007354736328125,0.12298583984375,11311.39239975,-0.02331544271142572,0.01591877909983964,-0.005675462599067865,11311.39239975,1.319874782639104,2.68454871375546,-1.448638037603611,-0.00374085153453052,-0.01361468806862831,0.0002298111066920683,-0.0007498663617298007,0.01630214788019657,0.006481826771050692,XArbitraryCorrectedZVertical,-0.5658117743959203,0.4842838593361946,-0.4058681727010872,0.5297142681952756,0.0537741594016552,0.9925479292869568,0.1093476414680481,3.043602705001831,32.3735466003418,-19.09651947021484,1,11310.99717375,unknown,1,2016-03-02 02:49:37.579,2016-03-02 02:47:07.556,115,77.7141,3,3,2016-03-02 02:49:34.058,11310.81003975,0,0.9697571,97.37961,192.168.1.101,100.78.239.175,2,1,0.35,0
2016-03-02 02:49:38.031,92,234B9614-18C8-49ED-8B56-CAB6C4F40872,my_iOS_device_1,1456908577.000027,40.79922930806949,-96.68577368380193,365.7045,0.19,253.828125,4,13.65627784533347,-9999,1456908578.003158,2.381807804107666,32.769775390625,-19.80474853515625,184.4361877441406,181.1590576171875,25,11311.45145175,0.055389404296875,1.005813598632812,0.1116180419921875,11311.42741575,-0.007344199338111515,0.01805463429408319,-0.006510363600807706,11311.42741575,1.322587058923073,2.686813001005319,-1.448499775853381,0.01222793105989695,-0.01147839426994324,-0.0006061581079848111,-0.0009744019480422139,0.01482364349067211,0.01339343748986721,XArbitraryCorrectedZVertical,-0.5660271547003697,0.4841585085476189,-0.4057443449372327,0.5296936145492032,0.05358670651912689,0.9925311207771301,0.1095924004912376,3.036855220794678,32.38089370727539,-19.08513069152832,1,11310.99717375,unknown,1,2016-03-02 02:49:37.579,2016-03-02 02:47:07.556,115,77.7141,3,3,2016-03-02 02:49:34.058,11310.81003975,0,0.9697571,97.37961,192.168.1.101,100.78.239.175,2,1,0.35,0
2016-03-02 02:49:38.061,93,234B9614-18C8-49ED-8B56-CAB6C4F40872,my_iOS_device_1,1456908577.000027,40.79922930806949,-96.68577368380193,365.7045,0.19,253.828125,4,13.65627784533347,-9999,1456908578.003158,2.381807804107666,32.769775390625,-19.80474853515625,184.4361877441406,181.1590576171875,25,11311.48174475,0.0586395263671875,1.004959106445312,0.1103668212890625,11311.46242575,-0.008481102807466343,0.0180684827317516,-0.001198156174426649,11311.42741575,1.322587058923073,2.686813001005319,-1.448499775853381,0.01222793105989695,-0.01147839426994324,-0.0006061581079848111,-0.0009744019480422139,0.01482364349067211,0.01339343748986721,XArbitraryCorrectedZVertical,-0.5660271547003697,0.4841585085476189,-0.4057443449372327,0.5296936145492032,0.05358670651912689,0.9925311207771301,0.1095924004912376,3.036855220794678,32.38089370727539,-19.08513069152832,1,11310.99717375,unknown,1,2016-03-02 02:49:37.579,2016-03-02 02:47:07.556,115,77.7141,3,3,2016-03-02 02:49:34.058,11310.81003975,0,0.9697571,97.37961,192.168.1.101,100.78.239.175,2,1,0.35,0
2016-03-02 02:49:38.108,94,234B9614-18C8-49ED-8B56-CAB6C4F40872,my_iOS_device_1,1456908578.000027,40.79922930806949,-96.68577368380193,365.7694,0,129.375,4,13.65627784533347,-9999,1456908578.065152,2.5547776222229,32.45674133300781,-19.50714111328125,184.3836364746094,181.1065063476562,25,11311.51204875,0.0559234619140625,1.007537841796875,0.1089324951171875,11311.49741875,-0.01063693170988549,0.01913614401276437,0.0009014800289918221,11311.49741875,1.316023101285748,2.679501443410242,-1.448967399595805,0.008934341371059418,-0.01039656344801188,0.00680665485560894,0.001301323994994164,0.01446153037250042,-0.000780499423854053,XArbitraryCorrectedZVertical,-0.5658604875557648,0.4839349262420677,-0.4055709934969377,0.5302085108899501,0.05417963117361069,0.9925880432128906,0.1087822094559669,3.017049074172974,32.38075256347656,-19.08851432800293,1,11310.99717375,unknown,1,2016-03-02 02:49:37.579,2016-03-02 02:47:07.556,115,77.7141,3,3,2016-03-02 02:49:34.058,11310.81003975,0,0.9697571,97.37961,192.168.1.101,100.78.239.175,2,1,0.35,0
2016-03-02 02:49:38.122,95,234B9614-18C8-49ED-8B56-CAB6C4F40872,my_iOS_device_1,1456908578.000027,40.79922930806949,-96.68577368380193,365.7694,0,129.375,4,13.65627784533347,-9999,1456908578.114093,2.589372634887695,32.76979064941406,-19.67254638671875,184.3421020507812,181.0649719238281,25,11311.54233075,0.060882568359375,1.005508422851562,0.1087799072265625,11311.53244075,-0.007480020553705557,0.01276399847253177,0.003082076329548703,11311.49741875,1.316023101285748,2.679501443410242,-1.448967399595805,0.008934341371059418,-0.01039656344801188,0.00680665485560894,0.001301323994994164,0.01446153037250042,-0.000780499423854053,XArbitraryCorrectedZVertical,-0.5658604875557648,0.4839349262420677,-0.4055709934969377,0.5302085108899501,0.05417963117361069,0.9925880432128906,0.1087822094559669,3.017049074172974,32.38075256347656,-19.08851432800293,1,11310.99717375,unknown,1,2016-03-02 02:49:37.579,2016-03-02 02:47:07.556,115,77.7141,3,3,2016-03-02 02:49:34.058,11310.81003975,0,0.9697571,97.37961,192.168.1.101,100.78.239.175,2,1,0.35,0
2016-03-02 02:49:38.151,96,234B9614-18C8-49ED-8B56-CAB6C4F40872,my_iOS_device_1,1456908578.000027,40.79922930806949,-96.68577368380193,365.7694,0,129.375,4,13.65627784533347,-9999,1456908578.114093,2.589372634887695,32.76979064941406,-19.67254638671875,184.3421020507812,181.0649719238281,25,11311.57258266667,0.0562286376953125,1.010330200195312,0.1047821044921875,11311.56738666667,-0.01380183234933565,0.01487428732031056,-0.0012737899493849,11311.53244075,1.312089286851981,2.675082740045228,-1.449053544270636,0.01209064014256001,-0.01676851138472557,0.008987774141132832,0.006017107516527176,0.01356605533510447,0.003854572540149093,XArbitraryCorrectedZVertical,-0.5657934763530904,0.4838495933906971,-0.4053928995357738,0.5304940245638159,0.05462132021784782,0.9925984740257263,0.1084653735160828,3.019709825515747,32.37105560302734,-19.10452651977539,1,11310.99717375,unknown,1,2016-03-02 02:49:37.579,2016-03-02 02:47:07.556,115,77.7141,3,3,2016-03-02 02:49:34.058,11310.81003975,0,0.9697571,97.37961,192.168.1.101,100.78.239.175,2,1,0.35,0
2016-03-02 02:49:38.186,97,234B9614-18C8-49ED-8B56-CAB6C4F40872,my_iOS_device_1,1456908578.000027,40.79922930806949,-96.68577368380193,365.7694,0,129.375,4,13.65627784533347,-9999,1456908578.170604,2.693155765533447,32.73500061035156,-19.83782958984375,184.3052978515625,181.0281677246094,25,11311.60287866667,0.0556793212890625,1.003952026367188,0.1027374267578125,11311.56738666667,-0.01380183234933565,0.01487428732031056,-0.0012737899493849,11311.56738666667,1.307069439152458,2.669415547659441,-1.449257209862599,0.005769196897745132,-0.01465819124132395,0.004633069504052401,0.002657106844708323,0.01579964347183704,-0.001391402212902904,XArbitraryCorrectedZVertical,-0.5657017513504917,0.4837029568312186,-0.4051901637348574,0.5308803154047411,0.05514318495988846,0.9926232099533081,0.1079740449786186,3.020546674728394,32.36647415161133,-19.11215782165527,1,11310.99717375,unknown,1,2016-03-02 02:49:37.579,2016-03-02 02:47:07.556,115,77.7141,3,3,2016-03-02 02:49:34.058,11310.81003975,0,0.9697571,97.37961,192.168.1.101,100.78.239.175,2,1,0.35,0
2016-03-02 02:49:38.219,98,234B9614-18C8-49ED-8B56-CAB6C4F40872,my_iOS_device_1,1456908578.000027,40.79922930806949,-96.68577368380193,365.7694,0,129.375,4,13.65627784533347,-9999,1456908578.170604,2.693155765533447,32.73500061035156,-19.83782958984375,184.3052978515625,181.0281677246094,25,11311.63317366667,0.0529937744140625,1.006179809570312,0.1020965576171875,11311.60241566667,-0.003196059624204094,0.01276133531144169,0.001012800162557134,11311.60241566667,1.303186769038918,2.665096390164468,-1.449816724577629,0.01637645438313484,-0.01677104085683823,0.006919377017766237,-0.0001632397470530123,0.01776138134300709,-0.004107172135263681,XArbitraryCorrectedZVertical,-0.5655676032363042,0.4834810749074576,-0.4051877939876611,0.5312270587792757,0.0553542785346508,0.9926908612251282,0.1072413250803947,3.021858692169189,32.34832763671875,-19.14265060424805,1,11310.99717375,unknown,1,2016-03-02 02:49:37.579,2016-03-02 02:47:07.556,115,77.7141,3,3,2016-03-02 02:49:34.058,11310.81003975,0,0.9697571,97.37961,192.168.1.101,100.78.239.175,2,1,0.35,0
2016-03-02 02:49:38.266,99,234B9614-18C8-49ED-8B56-CAB6C4F40872,my_iOS_device_1,1456908578.000027,40.79922930806949,-96.68577368380193,365.7694,0,129.375,4,13.65627784533347,-9999,1456908578.229445,2.762348175048828,32.59590148925781,-20.366943359375,184.2712707519531,180.994140625,25,11311.66347266667,0.06829833984375,1.009841918945312,0.1028594970703125,11311.63743266667,-0.03397554392279489,0.00421631663781345,-0.004758536235753583,11311.63743266667,1.301311608670884,2.662414660338089,-1.450050440840986,-0.01440091989934444,-0.02531595714390278,0.001147883711382747,-0.002540929475799203,0.01346074137836695,-0.004790057893842459,XArbitraryCorrectedZVertical,-0.565628434580951,0.4832264291845175,-0.405006327151617,0.5315322822728989,0.05553470551967621,0.9927190542221069,0.1068866178393364,3.01470947265625,32.33446502685547,-19.16718292236328,1,11310.99717375,unknown,1,2016-03-02 02:49:37.579,2016-03-02 02:47:07.556,115,77.7141,3,3,2016-03-02 02:49:34.058,11310.81003975,0,0.9697571,97.37961,192.168.1.101,100.78.239.175,2,1,0.35,0
2016-03-02 02:49:38.273,100,234B9614-18C8-49ED-8B56-CAB6C4F40872,my_iOS_device_1,1456908578.000027,40.79922930806949,-96.68577368380193,365.7694,0,129.375,4,13.65627784533347,-9999,1456908578.229445,2.762348175048828,32.59590148925781,-20.366943359375,184.2712707519531,180.994140625,25,11311.69376666667,0.05487060546875,1.012847900390625,0.107666015625,11311.67244466667,-0.02975816202054541,-0.006408630847166679,-0.00256036307200218,11311.63743266667,1.301311608670884,2.662414660338089,-1.450050440840986,-0.01440091989934444,-0.02531595714390278,0.001147883711382747,-0.002540929475799203,0.01346074137836695,-0.004790057893842459,XArbitraryCorrectedZVertical,-0.565628434580951,0.4832264291845175,-0.405006327151617,0.5315322822728989,0.05553470551967621,0.9927190542221069,0.1068866178393364,3.01470947265625,32.33446502685547,-19.16718292236328,1,11310.99717375,unknown,1,2016-03-02 02:49:37.579,2016-03-02 02:47:07.556,115,77.7141,3,3,2016-03-02 02:49:34.058,11310.81003975,0,0.9697571,97.37961,192.168.1.101,100.78.239.175,2,1,0.35,0
2016-03-02 02:49:38.308,101,234B9614-18C8-49ED-8B56-CAB6C4F40872,my_iOS_device_1,1456908578.000027,40.79922930806949,-96.68577368380193,365.7694,0,129.375,4,13.65627784533347,-9999,1456908578.2882,2.796942710876465,32.76982116699219,-20.135498046875,184.2360382080078,180.9589080810547,25,11311.72406666667,0.0497589111328125,1.00482177734375,0.10821533203125,11311.70745466667,-0.02124163917058101,0.003168362748867269,-0.002441586087384645,11311.70745466667,1.299526795300337,2.658420069492743,-1.449168613485913,-0.001667048432864249,-0.02636375464498997,0.00346713257022202,-0.004167594946920872,0.01748885400593281,-0.003435172373428941,XArbitraryCorrectedZVertical,-0.5661145514873597,0.4829429095407868,-0.404053337593714,0.5319975198230917,0.0563679113984108,0.9926124811172485,0.1074390783905983,2.999020099639893,32.3456916809082,-19.15069198608398,1,11310.99717375,unknown,1,2016-03-02 02:49:37.579,2016-03-02 02:47:07.556,115,77.7141,3,3,2016-03-02 02:49:34.058,11310.81003975,0,0.9697571,97.37961,192.168.1.101,100.78.239.175,2,1,0.35,0
2016-03-02 02:49:38.347,102,234B9614-18C8-49ED-8B56-CAB6C4F40872,my_iOS_device_1,1456908578.000027,40.79922930806949,-96.68577368380193,365.7694,0,129.375,4,13.65627784533347,-9999,1456908578.2882,2.796942710876465,32.76982116699219,-20.135498046875,184.2360382080078,180.9589080810547,25,11311.75436466667,0.0515289306640625,1.010757446289062,0.10528564453125,11311.74247166667,-0.02328534899110782,0.0169763203687101,-0.007807056735567286,11311.70745466667,1.299526795300337,2.658420069492743,-1.449168613485913,-0.001667048432864249,-0.02636375464498997,0.00346713257022202,-0.004167594946920872,0.01748885400593281,-0.003435172373428941,XArbitraryCorrectedZVertical,-0.5661145514873597,0.4829429095407868,-0.404053337593714,0.5319975198230917,0.0563679113984108,0.9926124811172485,0.1074390783905983,2.999020099639893,32.3456916809082,-19.15069198608398,1,11310.99717375,unknown,1,2016-03-02 02:49:37.579,2016-03-02 02:47:07.556,115,77.7141,3,3,2016-03-02 02:49:34.058,11310.81003975,0,0.9697571,97.37961,192.168.1.101,100.78.239.175,2,1,0.35,0
2016-03-02 02:49:38.369,103,234B9614-18C8-49ED-8B56-CAB6C4F40872,my_iOS_device_1,1456908578.000027,40.79922930806949,-96.68577368380193,365.7694,0,129.375,4,13.65627784533347,-9999,1456908578.347117,2.727753162384033,32.76982116699219,-20.2015380859375,184.1974487304688,180.9203186035156,25,11311.78465866667,0.0555877685546875,1.010421752929688,0.1042327880859375,11311.77748166667,-0.0169358403201409,0.01273337211999586,-0.005581186696479059,11311.74247166667,1.30078866897095,2.659132463645933,-1.449446231653079,-0.00371027342043817,-0.01255544647574425,-0.001900384202599525,-0.004878714680671692,0.01162635255604982,0.000430925254477188,XArbitraryCorrectedZVertical,-0.5662409652556742,0.4826890453019438,-0.4040129590590828,0.5321240303953017,0.05616350471973419,0.9926460981369019,0.1072350889444351,2.985071182250977,32.34643936157227,-19.15161514282227,1,11310.99717375,unknown,1,2016-03-02 02:49:37.579,2016-03-02 02:47:07.556,115,77.7141,3,3,2016-03-02 02:49:34.058,11310.81003975,0,0.9697571,97.37961,192.168.1.101,100.78.239.175,2,1,0.35,0
2016-03-02 02:49:38.402,104,234B9614-18C8-49ED-8B56-CAB6C4F40872,my_iOS_device_1,1456908578.000027,40.79922930806949,-96.68577368380193,365.7694,0,129.375,4,13.65627784533347,-9999,1456908578.347117,2.727753162384033,32.76982116699219,-20.2015380859375,184.1974487304688,180.9203186035156,25,11311.81496166667,0.0535430908203125,1.002944946289062,0.108245849609375,11311.81249366667,-0.01695474876388046,0.02656343397688635,-0.003457049411031859,11311.77748166667,1.303024922997362,2.660772211487192,-1.449684635802724,0.002629650756716728,-0.01679942198097706,0.0003236478951293975,-0.0007023551734164357,0.02014244347810745,0.001525359461084008,XArbitraryCorrectedZVertical,-0.5664197291210842,0.4824181793675082,-0.4039626071685136,0.5322176271862379,0.05587813630700111,0.9926749467849731,0.1071172207593918,2.960974216461182,32.34368896484375,-19.15999603271484,1,11310.99717375,unknown,1,2016-03-02 02:49:37.579,2016-03-02 02:47:07.556,115,77.7141,3,3,2016-03-02 02:49:34.058,11310.81003975,0,0.9697571,97.37961,192.168.1.101,100.78.239.175,2,1,0.35,0
2016-03-02 02:49:38.428,105,234B9614-18C8-49ED-8B56-CAB6C4F40872,my_iOS_device_1,1456908578.000027,40.79922930806949,-96.68577368380193,365.7694,0,129.375,4,13.65627784533347,-9999,1456908578.407625,2.658564567565918,32.49154663085938,-20.53228759765625,184.159423828125,180.8822937011719,25,11311.84525866667,0.056304931640625,1.009780883789062,0.1059722900390625,11311.81249366667,-0.01695474876388046,0.02656343397688635,-0.003457049411031859,11311.81249366667,1.302216167957036,2.659754289777685,-1.44989581688977,0.002611268544569612,-0.002969156950712204,0.002447126898914576,-0.002331647090613842,0.008917000144720078,-0.000322391017107293,XArbitraryCorrectedZVertical,-0.5664040348843984,0.4823108196830935,-0.4039607317383251,0.5323330439647057,0.05588999763131142,0.992700457572937,0.106874518096447,2.948361396789551,32.3438835144043,-19.16161346435547,1,11310.99717375,unknown,1,2016-03-02 02:49:37.579,2016-03-02 02:47:07.556,115,77.7141,3,3,2016-03-02 02:49:34.058,11310.81003975,0,0.9697571,97.37961,192.168.1.101,100.78.239.175,2,1,0.35,0
2016-03-02 02:49:38.456,106,234B9614-18C8-49ED-8B56-CAB6C4F40872,my_iOS_device_1,1456908578.000027,40.79922930806949,-96.68577368380193,365.7694,0,129.375,4,13.65627784533347,-9999,1456908578.407625,2.658564567565918,32.49154663085938,-20.53228759765625,184.159423828125,180.8822937011719,25,11311.87555566667,0.0598602294921875,1.004653930664062,0.1034088134765625,11311.84750966667,-0.01686446760292678,0.02973605778349775,-0.009851831820530127,11311.84750966667,1.302848545272201,2.660384133087058,-1.450111481363708,0.002702137222513556,0.0002037281374214217,-0.003948359750211239,0.0005813532625325024,0.01705446466803551,-0.0007476259488612413,XArbitraryCorrectedZVertical,-0.5664025036107878,0.4822324770149871,-0.4040434613370918,0.5323428626046943,0.05572357773780823,0.9927264451980591,0.1067199185490608,2.936637401580811,32.33806610107422,-19.17322540283203,1,11310.99717375,unknown,1,2016-03-02 02:49:37.579,2016-03-02 02:47:07.556,115,77.7141,3,3,2016-03-02 02:49:34.058,11310.81003975,0,0.9697571,97.37961,192.168.1.101,100.78.239.175,2,1,0.35,0
2016-03-02 02:49:38.507,107,234B9614-18C8-49ED-8B56-CAB6C4F40872,my_iOS_device_1,1456908578.000027,40.79922930806949,-96.68577368380193,365.7694,0,129.375,4,13.65627784533347,-9999,1456908578.466738,2.866134643554688,32.90895080566406,-21.06146240234375,184.1238861083984,180.8467559814453,25,11311.90583466667,0.05902099609375,1.005050659179688,0.1070556640625,11311.88251966667,-0.03285355415554451,0.02334953117337873,-0.007949269537777519,11311.88251966667,1.302461657030966,2.659785288747991,-1.450097605191909,-0.01328607928007841,-0.006182756274938583,-0.002045025117695332,0.004066369496285915,0.01192918233573437,-0.003289920743554831,XArbitraryCorrectedZVertical,-0.5664319161509226,0.4821869465571147,-0.403972172455356,0.5324069090622487,0.05579385906457901,0.9927247762680054,0.1066987365484238,2.933875322341919,32.33634185791016,-19.17655563354492,1,11310.99717375,unknown,1,2016-03-02 02:49:37.579,2016-03-02 02:47:07.556,115,77.7141,3,3,2016-03-02 02:49:34.058,11310.81003975,0,0.9697571,97.37961,192.168.1.101,100.78.239.175,2,1,0.35,0
2016-03-02 02:49:38.519,108,234B9614-18C8-49ED-8B56-CAB6C4F40872,my_iOS_device_1,1456908578.000027,40.79922930806949,-96.68577368380193,365.7694,0,129.375,4,13.65627784533347,-9999,1456908578.466738,2.866134643554688,32.90895080566406,-21.06146240234375,184.1238861083984,180.8467559814453,25,11311.93614366667,0.0555419921875,1.010604858398438,0.1112823486328125,11311.91753066667,-0.03610234436933217,0.02442225246046265,-0.0037340181644001,11311.91753066667,1.301503506904285,2.658534057593678,-1.44970345396395,-0.01652240380644798,-0.005080568604171276,0.002169666346162558,0.003247625194489956,0.01568460278213024,0.0009042950114235282,XArbitraryCorrectedZVertical,-0.5665024205199738,0.4822475291657518,-0.4037399883912481,0.5324531434148643,0.05610906332731247,0.9926772117614746,0.1069753468036652,2.93290376663208,32.33481597900391,-19.17928123474121,1,11310.99717375,unknown,1,2016-03-02 02:49:37.579,2016-03-02 02:47:07.556,115,77.7141,3,3,2016-03-02 02:49:34.058,11310.81003975,0,0.9697571,97.37961,192.168.1.101,100.78.239.175,2,1,0.35,0
2016-03-02 02:49:38.549,109,234B9614-18C8-49ED-8B56-CAB6C4F40872,my_iOS_device_1,1456908578.000027,40.79922930806949,-96.68577368380193,365.7694,0,129.375,4,13.65627784533347,-9999,1456908578.523544,2.278020858764648,32.87416076660156,-20.631591796875,184.0680541992188,180.7909240722656,25,11311.96644566667,0.05584716796875,1.010650634765625,0.1141357421875,11311.95254666667,-0.02326910370845834,0.0191001913380483,-0.008873652752144022,11311.91753066667,1.301503506904285,2.658534057593678,-1.44970345396395,-0.01652240380644798,-0.005080568604171276,0.002169666346162558,0.003247625194489956,0.01568460278213024,0.0009042950114235282,XArbitraryCorrectedZVertical,-0.5665024205199738,0.4822475291657518,-0.4037399883912481,0.5324531434148643,0.05610906332731247,0.9926772117614746,0.1069753468036652,2.93290376663208,32.33481597900391,-19.17928123474121,1,11310.99717375,unknown,1,2016-03-02 02:49:37.579,2016-03-02 02:47:07.556,115,77.7141,3,3,2016-03-02 02:49:34.058,11310.81003975,0,0.9697571,97.37961,192.168.1.101,100.78.239.175,2,1,0.35,0
2016-03-02 02:49:38.586,110,234B9614-18C8-49ED-8B56-CAB6C4F40872,my_iOS_device_1,1456908578.000027,40.79922930806949,-96.68577368380193,365.7694,0,129.375,4,13.65627784533347,-9999,1456908578.582539,2.001262187957764,32.80458068847656,-19.90399169921875,183.9948577880859,180.7177276611328,25,11311.99674266667,0.0614776611328125,1.005050659179688,0.101470947265625,11311.98754266667,-0.02641775906525902,0.01696220561493269,-0.01211551874709748,11311.95254666667,1.303663133671785,2.660433923226758,-1.449454723220881,-0.003689449746161699,-0.01040240935981274,-0.00297035020776093,-0.002461644355207682,0.01830867491662502,0.003905432764440775,XArbitraryCorrectedZVertical,-0.5666705349436674,0.4822186390249654,-0.4036194527693375,0.5323917977859398,0.05601999536156654,0.992647111415863,0.1073006242513657,2.934265613555908,32.34262466430664,-19.16589736938477,1,11310.99717375,unknown,1,2016-03-02 02:49:37.579,2016-03-02 02:47:07.556,115,77.7141,3,3,2016-03-02 02:49:34.058,11310.81003975,0,0.9697571,97.37961,192.168.1.101,100.78.239.175,2,1,0.35,0
2016-03-02 02:49:38.609,111,234B9614-18C8-49ED-8B56-CAB6C4F40872,my_iOS_device_1,1456908578.000027,40.79922930806949,-96.68577368380193,365.7694,0,129.375,4,13.65627784533347,-9999,1456908578.582539,2.001262187957764,32.80458068847656,-19.90399169921875,183.9948577880859,180.7177276611328,25,11312.02703966667,0.056793212890625,1.0108642578125,0.1115875244140625,11312.02256766667,-0.02755626043126789,0.01484925360606382,-0.006802246056280391,11311.98754266667,1.305419605590145,2.661732600033504,-1.44934527021939,-0.006838775239884853,-0.01254013273864985,-0.006212220061570406,0.005073883105069399,0.01009744126349688,-0.004060846753418446,XArbitraryCorrectedZVertical,-0.566845583836839,0.4821005228737542,-0.4034830276820049,0.5324158302512093,0.05593075603246689,0.9926338791847229,0.1074696630239487,2.927818775177002,32.34734344482422,-19.15892219543457,1,11310.99717375,unknown,1,2016-03-02 02:49:37.579,2016-03-02 02:47:07.556,115,77.7141,3,3,2016-03-02 02:49:34.058,11310.81003975,0,0.9697571,97.37961,192.168.1.101,100.78.239.175,2,1,0.35,0
2016-03-02 02:49:38.644,112,234B9614-18C8-49ED-8B56-CAB6C4F40872,my_iOS_device_1,1456908578.000027,40.79922930806949,-96.68577368380193,365.7694,0,129.375,4,13.65627784533347,-9999,1456908578.64213,2.208828926086426,32.73501586914062,-19.5733642578125,183.9286499023438,180.6515197753906,25,11312.05733966667,0.053558349609375,1.007919311523438,0.1086273193359375,11312.02256766667,-0.02755626043126789,0.01484925360606382,-0.006802246056280391,11312.02256766667,1.304852727720543,2.66063824973804,-1.449207108089508,-0.00797611940652132,-0.01465309504419565,-0.0008978615514934063,0.002970253815874457,0.01727056130766869,0.001478816266171634,XArbitraryCorrectedZVertical,-0.5669469006164498,0.4820126536704865,-0.4032772305703176,0.5325434150249804,0.05611177906394005,0.992617130279541,0.1075299754738808,2.913355350494385,32.35188674926758,-19.15345573425293,1,11310.99717375,unknown,1,2016-03-02 02:49:37.579,2016-03-02 02:47:07.556,115,77.7141,3,3,2016-03-02 02:49:34.058,11310.81003975,0,0.9697571,97.37961,192.168.1.101,100.78.239.175,2,1,0.35,0
2016-03-02 02:49:38.669,113,234B9614-18C8-49ED-8B56-CAB6C4F40872,my_iOS_device_1,1456908578.000027,40.79922930806949,-96.68577368380193,365.7694,0,129.375,4,13.65627784533347,-9999,1456908578.64213,2.208828926086426,32.73501586914062,-19.5733642578125,183.9286499023438,180.6515197753906,25,11312.08763266667,0.05560302734375,1.005584716796875,0.111785888671875,11312.05758466667,-0.02229252253672628,0.02018196737283848,-0.002465554537195359,11312.05758466667,1.307426923756146,2.662879112337713,-1.449043119628349,-0.002713480731472373,-0.009319963864982128,0.003437537001445889,-0.002387308049947023,0.01532208174467087,0.0008273996063508093,XArbitraryCorrectedZVertical,-0.5671359492654428,0.4819302593790575,-0.4031719436196477,0.5324964075217522,0.05594565719366074,0.992597222328186,0.1077999174594879,2.897324562072754,32.35915374755859,-19.14361000061035,1,11310.99717375,unknown,1,2016-03-02 02:49:37.579,2016-03-02 02:47:07.556,115,77.7141,3,3,2016-03-02 02:49:34.058,11310.81003975,0,0.9697571,97.37961,192.168.1.101,100.78.239.175,2,1,0.35,0
