loggingTime,loggingSample,identifierForVendor,deviceID,locationTimestamp_since1970,locationLatitude,locationLongitude,locationAltitude,locationSpeed,locationCourse,locationVerticalAccuracy,locationHorizontalAccuracy,locationFloor,locationHeadingTimestamp_since1970,locationHeadingX,locationHeadingY,locationHeadingZ,locationTrueHeading,locationMagneticHeading,locationHeadingAccuracy,accelerometerTimestamp_sinceReboot,accelerometerAccelerationX,accelerometerAccelerationY,accelerometerAccelerationZ,gyroTimestamp_sinceReboot,gyroRotationX,gyroRotationY,gyroRotationZ,motionTimestamp_sinceReboot,motionYaw,motionRoll,motionPitch,motionRotationRateX,motionRotationRateY,motionRotationRateZ,motionUserAccelerationX,motionUserAccelerationY,motionUserAccelerationZ,motionAttitudeReferenceFrame,motionQuaternionX,motionQuaternionY,motionQuaternionZ,motionQuaternionW,motionGravityX,motionGravityY,motionGravityZ,motionMagneticFieldX,motionMagneticFieldY,motionMagneticFieldZ,motionMagneticFieldCalibrationAccuracy,activityTimestamp_sinceReboot,activity,activityActivityConfidence,activityActivityStartDate,pedometerStartDate,pedometerNumberofSteps,pedometerDistance,pedometerFloorAscended,pedometerFloorDescended,pedometerEndDate,altimeterTimestamp_sinceReboot,altimeterReset,altimeterRelativeAltitude,altimeterPressure,IP_en0,IP_pdp_ip0,deviceOrientation,batteryState,batteryLevel,state
2016-03-02 02:49:02.289,1,234B9614-18C8-49ED-8B56-CAB6C4F40872,my_iOS_device_1,1456908542.000027,40.79922339882776,-96.68579673403565,366.469,0,121.2890625,4,13.00731632488905,-9999,1456908542.274268,10.32197380065918,31.0770263671875,-16.47705078125,205.2877655029297,202.0106353759766,25,11275.700297125,0.05596923828125,1.009658813476562,0.0985260009765625,11275.679928125,-0.04567640848816703,0.0424957951982854,-0.002816559168867802,11275.679928125,0.8923267828919518,2.70594300699296,-1.476663819380462,-0.02434542588889599,0.01302339974790812,0.003575598821043968,0.003807062050327659,0.007021188270300627,-0.01616816595196724,XArbitraryCorrectedZVertical,0.4428115727731723,-0.5886637445062832,0.5238536329598457,-0.4277502520826256,0.03966522961854935,0.9955728054046631,0.08521418273448944,9.292137145996094,31.48479080200195,-18.89582633972168,1,11263.50103429167,walking,0,2016-03-02 02:48:50.072,2016-03-02 02:47:07.556,84,57.67838,2,2,2016-03-02 02:49:00.448,11275.357469125,0,0.3888245,97.38637,192.168.1.101,100.78.239.175,2,1,0.35,0
2016-03-02 02:49:02.305,2,234B9614-18C8-49ED-8B56-CAB6C4F40872,my_iOS_device_1,1456908542.000027,40.79922339882776,-96.68579673403565,366.469,0,121.2890625,4,13.00731632488905,-9999,1456908542.274268,10.32197380065918,31.0770263671875,-16.47705078125,205.2877655029297,202.0106353759766,25,11275.730598125,0.0506439208984375,1.0098876953125,0.097015380859375,11275.714940125,-0.006448844579626876,0.008517055482182411,0.005230714697024632,11275.679928125,0.8923267828919518,2.70594300699296,-1.476663819380462,-0.02434542588889599,0.01302339974790812,0.003575598821043968,0.003807062050327659,0.007021188270300627,-0.01616816595196724,XArbitraryCorrectedZVertical,0.4428115727731723,-0.5886637445062832,0.5238536329598457,-0.4277502520826256,0.03966522961854935,0.9955728054046631,0.08521418273448944,9.292137145996094,31.48479080200195,-18.89582633972168,1,11263.50103429167,walking,0,2016-03-02 02:48:50.072,2016-03-02 02:47:07.556,84,57.67838,2,2,2016-03-02 02:49:00.448,11275.357469125,0,0.3888245,97.38637,192.168.1.101,100.78.239.175,2,1,0.35,0
2016-03-02 02:49:02.347,3,234B9614-18C8-49ED-8B56-CAB6C4F40872,my_iOS_device_1,1456908542.000027,40.79922339882776,-96.68579673403565,366.469,0,121.2890625,4,13.00731632488905,-9999,1456908542.326561,10.1834135055542,31.0074462890625,-16.543212890625,205.3289642333984,202.0518341064453,25,11275.760899125,0.051177978515625,1.01361083984375,0.085235595703125,11275.749946125,0.0178903172548253,-0.002075135121389743,0.01411555272574699,11275.714940125,0.8814990397781903,2.69466496081407,-1.47595976628627,0.01488145533949137,-0.02095463126897812,0.01162468735128641,0.01151779107749462,0.01421346608549356,0.01502459216862917,XArbitraryCorrectedZVertical,0.4426245378597224,-0.5888805208019091,0.523422308022203,-0.4281732571859627,0.04092666879296303,0.9955064058303833,0.08539349585771561,9.319682121276855,31.46815490722656,-18.90996932983398,1,11263.50103429167,walking,0,2016-03-02 02:48:50.072,2016-03-02 02:47:07.556,84,57.67838,2,2,2016-03-02 02:49:00.448,11275.357469125,0,0.3888245,97.38637,192.168.1.101,100.78.239.175,2,1,0.35,0
2016-03-02 02:49:02.365,4,234B9614-18C8-49ED-8B56-CAB6C4F40872,my_iOS_device_1,1456908542.000027,40.79922339882776,-96.68579673403565,366.469,0,121.2890625,4,13.00731632488905,-9999,1456908542.326561,10.1834135055542,31.0074462890625,-16.543212890625,205.3289642333984,202.0518341064453,25,11275.791200125,0.0428466796875,1.012481689453125,0.0738677978515625,11275.784945125,0.03179361604169297,0.00111080449067205,0.008987103414581397,11275.749946125,0.8704636989179277,2.682848220389217,-1.475662445089585,0.03921965882182121,-0.03154646977782249,0.02051067724823952,0.009846474044024944,0.0163016002625227,0.006841190624982119,XArbitraryCorrectedZVertical,0.442485750351809,-0.5888896453754816,0.5230650214070359,-0.4287403989427406,0.04206392541527748,0.9954782128334045,0.08516930788755417,9.333857536315918,31.46366119384766,-18.91045570373535,1,11263.50103429167,walking,0,2016-03-02 02:48:50.072,2016-03-02 02:47:07.556,84,57.67838,2,2,2016-03-02 02:49:00.448,11275.357469125,0,0.3888245,97.38637,192.168.1.101,100.78.239.175,2,1,0.35,0
2016-03-02 02:49:02.395,5,234B9614-18C8-49ED-8B56-CAB6C4F40872,my_iOS_device_1,1456908542.000027,40.79922339882776,-96.68579673403565,366.469,0,121.2890625,4,13.00731632488905,-9999,1456908542.386896,10.28733158111572,30.90306091308594,-17.237548828125,205.3487243652344,202.0715942382812,25,11275.821485125,0.0504913330078125,1.009735107421875,0.075592041015625,11275.784945125,0.03179361604169297,0.00111080449067205,0.008987103414581397,11275.784945125,0.8525638239315855,2.663868688196796,-1.476855462062987,0.05312309041619301,-0.02836016565561295,0.01538276020437479,-0.0007072418229654431,0.01728761754930019,-0.002505653770640492,XArbitraryCorrectedZVertical,0.4421115894164618,-0.588377271360587,0.5231382840351261,-0.429739298676175,0.0431266762316227,0.9955908060073853,0.08330094069242477,9.357223510742188,31.44296073913574,-18.93332099914551,1,11263.50103429167,walking,0,2016-03-02 02:48:50.072,2016-03-02 02:47:07.556,84,57.67838,2,2,2016-03-02 02:49:00.448,11275.357469125,0,0.3888245,97.38637,192.168.1.101,100.78.239.175,2,1,0.35,0
2016-03-02 02:49:02.425,6,234B9614-18C8-49ED-8B56-CAB6C4F40872,my_iOS_device_1,1456908542.000027,40.79922339882776,-96.68579673403565,366.469,0,121.2890625,4,13.00731632488905,-9999,1456908542.386896,10.28733158111572,30.90306091308594,-17.237548828125,205.3487243652344,202.0715942382812,25,11275.851792125,0.043701171875,1.005340576171875,0.0719146728515625,11275.819983125,0.03078853904629706,0.001098287633548678,0.004709534071696125,11275.819983125,0.8354267757147699,2.645672201269937,-1.47878595284138,0.05211952328681946,-0.02837240882217884,0.01110535580664873,0.006694442126899958,0.01414818223565817,-0.01176582742482424,XArbitraryCorrectedZVertical,0.4417331144945637,-0.5876034202121352,0.523500035392957,-0.4307456198935675,0.04372059553861618,0.9957700371742249,0.08081185072660446,9.355489730834961,31.36047554016113,-19.07049179077148,1,11263.50103429167,walking,0,2016-03-02 02:48:50.072,2016-03-02 02:47:07.556,84,57.67838,2,2,2016-03-02 02:49:00.448,11275.357469125,0,0.3888245,97.38637,192.168.1.101,100.78.239.175,2,1,0.35,0
2016-03-02 02:49:02.457,7,234B9614-18C8-49ED-8B56-CAB6C4F40872,my_iOS_device_1,1456908542.000027,40.79922339882776,-96.68579673403565,366.469,0,121.2890625,4,13.00731632488905,-9999,1456908542.443285,10.25269222259521,30.72911071777344,-17.79962158203125,205.2621002197266,201.9849700927734,25,11275.882095125,0.05242919921875,1.011505126953125,0.071533203125,11275.854993125,0.02758182677773265,0.01917955353853266,0.006785201825303883,11275.854993125,0.8181668390467942,2.627870922052884,-1.480452621333123,0.04891353473067284,-0.01029083598405123,0.01318129058927298,-0.0006353408680297434,0.009418793953955173,-0.006660621613264084,XArbitraryCorrectedZVertical,0.4412481005907074,-0.5870159801712962,0.5238935122450691,-0.4315645265497833,0.04433651268482208,0.995921790599823,0.07857529819011688,9.357685089111328,31.33242988586426,-19.1154613494873,1,11263.50103429167,walking,0,2016-03-02 02:48:50.072,2016-03-02 02:47:07.556,84,57.67838,2,2,2016-03-02 02:49:00.448,11275.357469125,0,0.3888245,97.38637,192.168.1.101,100.78.239.175,2,1,0.35,0
2016-03-02 02:49:02.506,8,234B9614-18C8-49ED-8B56-CAB6C4F40872,my_iOS_device_1,1456908542.000027,40.79922339882776,-96.68579673403565,366.469,0,121.2890625,4,13.00731632488905,-9999,1456908542.502179,10.07949447631836,30.55513000488281,-18.29559326171875,205.1658782958984,201.8887481689453,25,11275.912386125,0.053009033203125,1.013992309570312,0.0702056884765625,11275.890004125,0.02129090765074748,0.02341078387845055,0.000297208777652843,11275.890004125,0.8014201265280351,2.610861601059756,-1.48185262239718,0.04262351989746094,-0.006059351842850447,0.006693685427308083,0.007468436844646931,0.01545801106840372,-0.005074062384665012,XArbitraryCorrectedZVertical,0.4407346583390773,-0.5865633757724833,0.5242663785235044,-0.432251236540698,0.04496076330542564,0.9960471391677856,0.07660726457834244,9.36064624786377,31.30723762512207,-19.15524291992188,1,11263.50103429167,walking,0,2016-03-02 02:48:50.072,2016-03-02 02:47:07.556,84,57.67838,2,2,2016-03-02 02:49:00.448,11275.357469125,0,0.3888245,97.38637,192.168.1.101,100.78.239.175,2,1,0.35,0
2016-03-02 02:49:02.521,9,234B9614-18C8-49ED-8B56-CAB6C4F40872,my_iOS_device_1,1456908542.000027,40.79922339882776,-96.68579673403565,366.469,0,121.2890625,4,13.00731632488905,-9999,1456908542.502179,10.07949447631836,30.55513000488281,-18.29559326171875,205.1658782958984,201.8887481689453,25,11275.942692125,0.0583038330078125,1.00360107421875,0.0679168701171875,11275.925021125,0.02444275880085625,0.02980237049464072,0.003536944243734236,11275.890004125,0.8014201265280351,2.610861601059756,-1.48185262239718,0.04262351989746094,-0.006059351842850447,0.006693685427308083,0.007468436844646931,0.01545801106840372,-0.005074062384665012,XArbitraryCorrectedZVertical,0.4407346583390773,-0.5865633757724833,0.5242663785235044,-0.432251236540698,0.04496076330542564,0.9960471391677856,0.07660726457834244,9.36064624786377,31.30723762512207,-19.15524291992188,1,11263.50103429167,walking,0,2016-03-02 02:48:50.072,2016-03-02 02:47:07.556,84,57.67838,2,2,2016-03-02 02:49:00.448,11275.357469125,0,0.3888245,97.38637,192.168.1.101,100.78.239.175,2,1,0.35,0
2016-03-02 02:49:02.551,10,234B9614-18C8-49ED-8B56-CAB6C4F40872,my_iOS_device_1,1456908542.000027,40.79922339882776,-96.68579673403565,366.469,0,121.2890625,4,13.00731632488905,-9999,1456908542.502179,10.07949447631836,30.55513000488281,-18.29559326171875,205.1658782958984,201.8887481689453,25,11275.972991125,0.0581512451171875,1.01300048828125,0.0700836181640625,11275.960030125,0.01376135230076645,0.02873976921969911,0.006579605789149766,11275.925021125,0.7835738760703821,2.592857163970555,-1.483079835128409,0.0457761362195015,0.0003326548612676561,0.009934675879776478,0.008427882567048073,0.01391542609781027,-0.004979259334504604,XArbitraryCorrectedZVertical,0.4401806455713786,-0.5861844596149725,0.5246063654190088,-0.4329167817630908,0.04569504410028458,0.9961553812026978,0.07474244385957718,9.376706123352051,31.2573413848877,-19.22873115539551,1,11263.50103429167,walking,0,2016-03-02 02:48:50.072,2016-03-02 02:47:07.556,84,57.67838,2,2,2016-03-02 02:49:00.448,11275.357469125,0,0.3888245,97.38637,192.168.1.101,100.78.239.175,2,1,0.35,0
2016-03-02 02:49:02.585,11,234B9614-18C8-49ED-8B56-CAB6C4F40872,my_iOS_device_1,1456908542.000027,40.79922339882776,-96.68579673403565,366.469,0,121.2890625,4,13.00731632488905,-9999,1456908542.560965,10.25269222259521,30.72911071777344,-18.46099853515625,205.0888824462891,201.8117523193359,25,11276.003293125,0.05926513671875,1.007781982421875,0.0599517822265625,11275.995043125,0.0287461608063153,0.0361771791959634,0.0003989415312938699,11275.960030125,0.7626866480132503,2.571904488377223,-1.483988764630568,0.03509562835097313,-0.0007295587565749884,0.01297897659242153,0.01447095163166523,0.005657501053065062,-0.001213601790368557,XArbitraryCorrectedZVertical,0.4395316960598554,-0.5859308750225464,0.5248534176202837,-0.4336194043932481,0.04676256701350212,0.9962345957756042,0.07300620526075363,9.398797988891602,31.20652198791504,-19.30035591125488,1,11263.50103429167,walking,0,2016-03-02 02:48:50.072,2016-03-02 02:47:07.556,84,57.67838,2,2,2016-03-02 02:49:00.448,11275.357469125,0,0.3888245,97.38637,192.168.1.101,100.78.239.175,2,1,0.35,0
2016-03-02 02:49:02.607,12,234B9614-18C8-49ED-8B56-CAB6C4F40872,my_iOS_device_1,1456908542.000027,40.79922339882776,-96.68579673403565,366.469,0,121.2890625,4,13.00731632488905,-9999,1456908542.560965,10.25269222259521,30.72911071777344,-18.46099853515625,205.0888824462891,201.8117523193359,25,11276.033594125,0.0626678466796875,1.008071899414062,0.0617828369140625,11275.995043125,0.0287461608063153,0.0361771791959634,0.0003989415312938699,11275.995043125,0.7395836790151842,2.549131517853727,-1.485045401531406,0.05008186399936676,0.00670825457200408,0.006800269242376089,0.009471721015870571,0.01485905051231384,-0.01349299866706133,XArbitraryCorrectedZVertical,0.43872136204908,-0.5857031177218042,0.5252505647505744,-0.4342663567465803,0.04782503098249435,0.9963256120681763,0.07104915380477905,9.44260311126709,31.15985107421875,-19.35430526733398,1,11263.50103429167,walking,0,2016-03-02 02:48:50.072,2016-03-02 02:47:07.556,84,57.67838,2,2,2016-03-02 02:49:00.448,11275.357469125,0,0.3888245,97.38637,192.168.1.101,100.78.239.175,2,1,0.35,0
2016-03-02 02:49:02.638,13,234B9614-18C8-49ED-8B56-CAB6C4F40872,my_iOS_device_1,1456908542.000027,40.79922339882776,-96.68579673403565,366.469,0,121.2890625,4,13.00731632488905,-9999,1456908542.619735,10.70301151275635,30.62472534179688,-18.75848388671875,205.0312194824219,201.7540893554688,25,11276.063896125,0.071624755859375,1.003433227539062,0.057525634765625,11276.030050125,0.02018409790171055,0.02448217358498943,0.003477822067534477,11276.030050125,0.7176982758709513,2.527162714102998,-1.486223239418516,0.04152090474963188,-0.00498645007610321,0.009880734607577324,0.01073530688881874,0.01285151578485966,-0.003852218389511108,XArbitraryCorrectedZVertical,0.4380707484542232,-0.5853249290923471,0.5256202239665012,-0.4349852030692398,0.04869767650961876,0.9964258074760437,0.06902250647544861,9.475166320800781,31.09930992126465,-19.43559455871582,1,11263.50103429167,walking,0,2016-03-02 02:48:50.072,2016-03-02 02:47:07.556,84,57.67838,2,2,2016-03-02 02:49:00.448,11275.357469125,0,0.3888245,97.38637,192.168.1.101,100.78.239.175,2,1,0.35,0
2016-03-02 02:49:02.668,14,234B9614-18C8-49ED-8B56-CAB6C4F40872,my_iOS_device_1,1456908542.000027,40.79922339882776,-96.68579673403565,366.469,0,121.2890625,4,13.00731632488905,-9999,1456908542.619735,10.70301151275635,30.62472534179688,-18.75848388671875,205.0312194824219,201.7540893554688,25,11276.094193125,0.05938720703125,1.017669677734375,0.0636138916015625,11276.065070125,-0.001050084417818244,0.01807700484723985,-2.450108202872899e-05,11276.065070125,0.6899215152899066,2.499124466728979,-1.486851397539792,0.02029784023761749,-0.01141716167330742,0.006387677509337664,0.02138624340295792,0.006954534444957972,-0.009603393264114857,XArbitraryCorrectedZVertical,0.4373102881755758,-0.5850848020983954,0.5257609024752665,-0.4359024657393631,0.05023851245641708,0.9964786767959595,0.06712903082370758,9.491334915161133,31.07273483276367,-19.47018051147461,1,11263.50103429167,walking,0,2016-03-02 02:48:50.072,2016-03-02 02:47:07.556,84,57.67838,2,2,2016-03-02 02:49:00.448,11275.357469125,0,0.3888245,97.38637,192.168.1.101,100.78.239.175,2,1,0.35,0
2016-03-02 02:49:02.698,15,234B9614-18C8-49ED-8B56-CAB6C4F40872,my_iOS_device_1,1456908542.000027,40.79922339882776,-96.68579673403565,366.469,0,121.2890625,4,13.00731632488905,-9999,1456908542.679185,10.77229309082031,30.48558044433594,-18.8907470703125,205.0029907226562,201.7258605957031,25,11276.124494125,0.059539794921875,1.0069580078125,0.05535888671875,11276.100080125,-0.002021871899588158,0.0233756301520615,-0.006435795090285487,11276.100080125,0.6776058456341575,2.486498354698852,-1.487082207901086,0.01932654157280922,-0.006118180695921183,-2.178842078137677e-05,0.008445266634225845,0.02117165923118591,-0.002693097339943051,XArbitraryCorrectedZVertical,0.4370277361397767,-0.584944657475032,0.5257708684639527,-0.4363616612520025,0.05094194039702415,0.9964980483055115,0.06630698591470718,9.531768798828125,31.02163696289062,-19.53180694580078,1,11263.50103429167,walking,0,2016-03-02 02:48:50.072,2016-03-02 02:47:07.556,84,57.67838,2,2,2016-03-02 02:49:00.448,11275.357469125,0,0.3888245,97.38637,192.168.1.101,100.78.239.175,2,1,0.35,0
2016-03-02 02:49:02.746,16,234B9614-18C8-49ED-8B56-CAB6C4F40872,my_iOS_device_1,1456908542.000027,40.79922339882776,-96.68579673403565,366.469,0,121.2890625,4,13.00731632488905,-9999,1456908542.729528,10.80693244934082,30.17243957519531,-18.92376708984375,204.9810943603516,201.7039642333984,25,11276.154792125,0.0622406005859375,1.0030517578125,0.062774658203125,11276.135097125,0.002118278331049026,0.007448328936733613,0.001092694995259511,11276.100080125,0.6776058456341575,2.486498354698852,-1.487082207901086,0.01932654157280922,-0.006118180695921183,-2.178842078137677e-05,0.008445266634225845,0.02117165923118591,-0.002693097339943051,XArbitraryCorrectedZVertical,0.4370277361397767,-0.584944657475032,0.5257708684639527,-0.4363616612520025,0.05094194039702415,0.9964980483055115,0.06630698591470718,9.531768798828125,31.02163696289062,-19.53180694580078,1,11263.50103429167,walking,0,2016-03-02 02:48:50.072,2016-03-02 02:47:07.556,84,57.67838,2,2,2016-03-02 02:49:00.448,11275.357469125,0,0.3888245,97.38637,192.168.1.101,100.78.239.175,2,1,0.35,0
2016-03-02 02:49:02.759,17,234B9614-18C8-49ED-8B56-CAB6C4F40872,my_iOS_device_1,1456908542.000027,40.79922339882776,-96.68579673403565,366.469,0,121.2890625,4,13.00731632488905,-9999,1456908542.729528,10.80693244934082,30.17243957519531,-18.92376708984375,204.9810943603516,201.7039642333984,25,11276.185075125,0.0649566650390625,1.00872802734375,0.0465087890625,11276.170108125,-0.02227467935742275,0.02443263878871395,-0.003533215818208126,11276.135097125,0.6586676411245952,2.46697081644419,-1.487872694761867,0.02346904575824738,-0.02204537391662598,0.007508451119065285,0.01036834064871073,0.009204016998410225,-0.007586067076772451,XArbitraryCorrectedZVertical,0.436631720106457,-0.5845468064187176,0.525929607497075,-0.4370993251659338,0.05173493176698685,0.9965637922286987,0.06468445807695389,9.544193267822266,30.98994255065918,-19.57600593566895,1,11263.50103429167,walking,0,2016-03-02 02:48:50.072,2016-03-02 02:47:07.556,84,57.67838,2,2,2016-03-02 02:49:00.448,11275.357469125,0,0.3888245,97.38637,192.168.1.101,100.78.239.175,2,1,0.35,0
2016-03-02 02:49:02.789,18,234B9614-18C8-49ED-8B56-CAB6C4F40872,my_iOS_device_1,1456908542.000027,40.79922339882776,-96.68579673403565,366.469,0,121.2890625,4,13.00731632488905,-9999,1456908542.787369,10.70301151275635,30.34642028808594,-18.75848388671875,204.9603729248047,201.6832427978516,25,11276.215379125,0.0673828125,1.01251220703125,0.0535736083984375,11276.205119125,-0.0338919206645664,0.01802587215431033,-0.0100931142152913,11276.170108125,0.6487833121700441,2.456631105318581,-1.487843812798628,-0.0009233777527697384,-0.005060774274170399,0.00288411951623857,0.008585457690060139,0.004796619527041912,-0.006657998077571392,XArbitraryCorrectedZVertical,0.4364613330411605,-0.5844533272642514,0.525823451822924,-0.4375220114722138,0.05241918191313744,0.9965614080429077,0.06416837126016617,9.555434226989746,30.9589786529541,-19.61946487426758,1,11263.50103429167,walking,0,2016-03-02 02:48:50.072,2016-03-02 02:47:07.556,84,57.67838,2,2,2016-03-02 02:49:00.448,11275.357469125,0,0.3888245,97.38637,192.168.1.101,100.78.239.175,2,1,0.35,0
2016-03-02 02:49:02.825,19,234B9614-18C8-49ED-8B56-CAB6C4F40872,my_iOS_device_1,1456908542.000027,40.79922339882776,-96.68579673403565,366.469,0,121.2890625,4,13.00731632488905,-9999,1456908542.787369,10.70301151275635,30.34642028808594,-18.75848388671875,204.9603729248047,201.6832427978516,25,11276.245683125,0.0547332763671875,1.01129150390625,0.0617218017578125,11276.205119125,-0.0338919206645664,0.01802587215431033,-0.0100931142152913,11276.205119125,0.6390564229489734,2.446455380391424,-1.487845482671163,-0.01253786403685808,-0.0114675797522068,-0.003674062667414546,0.01394825149327517,0.01718661747872829,-0.01670960336923599,XArbitraryCorrectedZVertical,0.4362942458124823,-0.5843479451586507,0.525732706969558,-0.4379382729132367,0.05306835100054741,0.9965615272521973,0.06363037973642349,9.563418388366699,30.94814300537109,-19.63266754150391,1,11263.50103429167,walking,0,2016-03-02 02:48:50.072,2016-03-02 02:47:07.556,84,57.67838,2,2,2016-03-02 02:49:00.448,11275.357469125,0,0.3888245,97.38637,192.168.1.101,100.78.239.175,2,1,0.35,0
2016-03-02 02:49:02.850,20,234B9614-18C8-49ED-8B56-CAB6C4F40872,my_iOS_device_1,1456908542.000027,40.79922339882776,-96.68579673403565,366.469,0,121.2890625,4,13.00731632488905,-9999,1456908542.845857,10.52981090545654,30.2420654296875,-18.5931396484375,204.9414672851562,201.6643371582031,25,11276.275978125,0.0612335205078125,1.001571655273438,0.0632171630859375,11276.240114125,-0.04758056866757369,0.027559722540685,-0.01988848702071175,11276.240114125,0.63773409375495,2.444776766207139,-1.48746887426412,-0.02622527815401554,-0.00193339807447046,-0.0134671488776803,0.004613224416971207,0.01396777108311653,0.002836620900779963,XArbitraryCorrectedZVertical,0.4363417870388018,-0.5843974324980965,0.5255187708932603,-0.438081621632593,0.05341595038771629,0.996530294418335,0.06382902711629868,9.570920944213867,30.93173599243164,-19.65485572814941,1,11263.50103429167,walking,0,2016-03-02 02:48:50.072,2016-03-02 02:47:07.556,84,57.67838,2,2,2016-03-02 02:49:00.448,11275.357469125,0,0.3888245,97.38637,192.168.1.101,100.78.239.175,2,1,0.35,0
2016-03-02 02:49:02.882,21,234B9614-18C8-49ED-8B56-CAB6C4F40872,my_iOS_device_1,1456908542.000027,40.79922339882776,-96.68579673403565,366.469,0,121.2890625,4,13.00731632488905,-9999,1456908542.845857,10.52981090545654,30.2420654296875,-18.5931396484375,204.9414672851562,201.6643371582031,25,11276.306271125,0.071044921875,1.012130737304688,0.0692138671875,11276.275123125,-0.05182964218679511,0.03500032831025738,-0.0199540007835277,11276.275123125,0.6462983718693145,2.453300605053698,-1.487067889716191,-0.03047388605773449,0.00550737464800477,-0.01353195775300264,0.005744635127484798,0.006890629418194294,-0.002655201824381948,XArbitraryCorrectedZVertical,0.4365979310220354,-0.5845319152471199,0.5253573084549203,-0.4378405932960096,0.05312377214431763,0.9964967966079712,0.06459062546491623,9.572422981262207,30.93595123291016,-19.64748764038086,1,11263.50103429167,walking,0,2016-03-02 02:48:50.072,2016-03-02 02:47:07.556,84,57.67838,2,2,2016-03-02 02:49:00.448,11275.357469125,0,0.3888245,97.38637,192.168.1.101,100.78.239.175,2,1,0.35,0
2016-03-02 02:49:02.911,22,234B9614-18C8-49ED-8B56-CAB6C4F40872,my_iOS_device_1,1456908542.000027,40.79922339882776,-96.68579673403565,366.469,0,121.2890625,4,13.00731632488905,-9999,1456908542.904773,10.21805286407471,30.41603088378906,-18.5601806640625,204.907470703125,201.6303405761719,25,11276.336566125,0.0686187744140625,1.00189208984375,0.0761566162109375,11276.310153125,-0.06671112004204889,0.02860581221686812,-0.02123258442287474,11276.310153125,0.6530823700799792,2.460079895275634,-1.485885401002423,-0.04535486549139023,-0.0008866714197210968,-0.01480763778090477,0.01761795952916145,0.01573350466787815,0.003349503735080361,XArbitraryCorrectedZVertical,0.4367830583438079,-0.5849382374898719,0.5249212458270991,-0.4376362690013086,0.05342696234583855,0.9963972568511963,0.06586436182260513,9.562849044799805,30.95707511901855,-19.61885452270508,1,11263.50103429167,walking,0,2016-03-02 02:48:50.072,2016-03-02 02:47:07.556,84,57.67838,2,2,2016-03-02 02:49:00.448,11275.357469125,0,0.3888245,97.38637,192.168.1.101,100.78.239.175,2,1,0.35,0
2016-03-02 02:49:02.941,23,234B9614-18C8-49ED-8B56-CAB6C4F40872,my_iOS_device_1,1456908542.000027,40.79922339882776,-96.68579673403565,366.469,0,121.2890625,4,13.00731632488905,-9999,1456908542.904773,10.21805286407471,30.41603088378906,-18.5601806640625,204.907470703125,201.6303405761719,25,11276.366837125,0.05810546875,1.002853393554688,0.07757568359375,11276.345173125,-0.07948550484283197,0.01477202193445152,-0.02141101621591005,11276.310153125,0.6530823700799792,2.460079895275634,-1.485885401002423,-0.04535486549139023,-0.0008866714197210968,-0.01480763778090477,0.01761795952916145,0.01573350466787815,0.003349503735080361,XArbitraryCorrectedZVertical,0.4367830583438079,-0.5849382374898719,0.5249212458270991,-0.4376362690013086,0.05342696234583855,0.9963972568511963,0.06586436182260513,9.562849044799805,30.95707511901855,-19.61885452270508,1,11263.50103429167,walking,0,2016-03-02 02:48:50.072,2016-03-02 02:47:07.556,84,57.67838,2,2,2016-03-02 02:49:00.448,11275.357469125,0,0.3888245,97.38637,192.168.1.101,100.78.239.175,2,1,0.35,0
2016-03-02 02:49:02.984,24,234B9614-18C8-49ED-8B56-CAB6C4F40872,my_iOS_device_1,1456908542.000027,40.79922339882776,-96.68579673403565,366.469,0,121.2890625,4,13.00731632488905,-9999,1456908542.963276,9.594536781311035,30.55522155761719,-18.427978515625,204.8467102050781,201.569580078125,25,11276.397154125,0.053619384765625,1.017898559570312,0.08740234375,11276.380184125,-0.0858089145351161,0.01475551033569303,-0.02576581723040762,11276.345173125,0.6677067901915035,2.474375661198728,-1.484057147951576,-0.05813133716583252,-0.01471962966024876,-0.01498346123844385,0.01501165889203548,0.005651574581861496,0.008104337379336357,XArbitraryCorrectedZVertical,0.437291191293,-0.5854934272340686,0.5241787930709799,-0.4372761754062205,0.05360711365938187,0.996240496635437,0.06805227696895599,9.571810722351074,31.00807952880859,-19.53375625610352,1,11263.50103429167,walking,0,2016-03-02 02:48:50.072,2016-03-02 02:47:07.556,84,57.67838,2,2,2016-03-02 02:49:00.448,11275.357469125,0,0.3888245,97.38637,192.168.1.101,100.78.239.175,2,1,0.35,0
2016-03-02 02:49:02.999,25,234B9614-18C8-49ED-8B56-CAB6C4F40872,my_iOS_device_1,1456908542.000027,40.79922339882776,-96.68579673403565,366.469,0,121.2890625,4,13.00731632488905,-9999,1456908542.963276,9.594536781311035,30.55522155761719,-18.427978515625,204.8467102050781,201.569580078125,25,11276.427427125,0.04791259765625,1.001724243164062,0.0747222900390625,11276.415175125,-0.07836804244943472,0.008380701634370354,-0.02565449709684231,11276.380184125,0.6882603893842723,2.494374200082395,-1.481987291718572,-0.0644567534327507,-0.0147353857755661,-0.01933655329048634,0.002185266232118011,0.01242481824010611,0.01167241577059031,XArbitraryCorrectedZVertical,0.4380618450615554,-0.5860713279051597,0.5233077093903655,-0.4367736940354177,0.05347879603505135,0.9960590600967407,0.07075556367635727,9.571489334106445,31.03458023071289,-19.49178123474121,1,11263.50103429167,walking,0,2016-03-02 02:48:50.072,2016-03-02 02:47:07.556,84,57.67838,2,2,2016-03-02 02:49:00.448,11275.357469125,0,0.3888245,97.38637,192.168.1.101,100.78.239.175,2,1,0.35,0
2016-03-02 02:49:03.034,26,234B9614-18C8-49ED-8B56-CAB6C4F40872,my_iOS_device_1,1456908542.000027,40.79922339882776,-96.68579673403565,366.469,0,121.2890625,4,13.00731632488905,-9999,1456908543.022502,9.837016105651855,30.45088195800781,-17.99810791015625,204.7983856201172,201.5212554931641,25,11276.457743125,0.05340576171875,1.009536743164062,0.075531005859375,11276.450196125,-0.08480223964306616,0.01689482763935368,-0.02148931315195838,11276.415175125,0.7141049994501141,2.519532388115606,-1.48023186603008,-0.05701807886362076,-0.02110960893332958,-0.01922546699643135,-0.002636685967445374,0.01630518957972527,0.006151554174721241,XArbitraryCorrectedZVertical,0.4390634678193842,-0.5864920576188163,0.5225429798214167,-0.4361183002532736,0.05270077288150787,0.9959018230438232,0.07349932193756104,9.543778419494629,31.10304832458496,-19.39599990844727,1,11263.50103429167,walking,0,2016-03-02 02:48:50.072,2016-03-02 02:47:07.556,84,57.67838,2,2,2016-03-02 02:49:00.448,11275.357469125,0,0.3888245,97.38637,192.168.1.101,100.78.239.175,2,1,0.35,0
2016-03-02 02:49:03.067,27,234B9614-18C8-49ED-8B56-CAB6C4F40872,my_iOS_device_1,1456908542.000027,40.79922339882776,-96.68579673403565,366.469,0,121.2890625,4,13.00731632488905,-9999,1456908543.022502,9.837016105651855,30.45088195800781,-17.99810791015625,204.7983856201172,201.5212554931641,25,11276.488015125,0.0489044189453125,1.019302368164062,0.077728271484375,11276.450196125,-0.08480223964306616,0.01689482763935368,-0.02148931315195838,11276.450196125,0.732531015177449,2.53728712288164,-1.478944783199644,-0.06345247477293015,-0.01259525399655104,-0.01506060920655727,0.002724244957789779,0.008289485238492489,0.0001444449590053409,XArbitraryCorrectedZVertical,0.4398439883348249,-0.5867506478399962,0.5219580192002383,-0.4356842542227213,0.05211584270000458,0.9957846403121948,0.07547811418771744,9.499256134033203,31.16367721557617,-19.32039260864258,1,11263.50103429167,walking,0,2016-03-02 02:48:50.072,2016-03-02 02:47:07.556,84,57.67838,2,2,2016-03-02 02:49:00.448,11275.357469125,0,0.3888245,97.38637,192.168.1.101,100.78.239.175,2,1,0.35,0
2016-03-02 02:49:03.095,28,234B9614-18C8-49ED-8B56-CAB6C4F40872,my_iOS_device_1,1456908543.000027,40.79921912405714,-96.68579162107471,366.4678,0.15,104.0625,4,13.53743972944948,-9999,1456908543.082455,10.07949829101562,30.41609191894531,-17.7666015625,204.7598724365234,201.4827423095703,25,11276.518327125,0.0535888671875,1.003677368164062,0.07037353515625,11276.520235125,-0.06453185532203705,0.0392326239146113,-0.02440361033283209,11276.485222125,0.7501110792110031,2.554727094186812,-1.477721897082532,-0.05060213431715965,0.004414183553308249,-0.0202117208391428,-0.000791494851000607,0.02353911474347115,7.946023106342182e-05,XArbitraryCorrectedZVertical,0.4404725587625383,-0.5870933749375604,0.5215226007480219,-0.4351085737957974,0.05146593227982521,0.9956716895103455,0.07738941162824631,9.474612236022949,31.21413421630859,-19.25091361999512,1,11263.50103429167,walking,0,2016-03-02 02:48:50.072,2016-03-02 02:47:07.556,84,57.67838,2,2,2016-03-02 02:49:00.448,11275.357469125,0,0.3888245,97.38637,192.168.1.101,100.78.239.175,2,1,0.35,0
2016-03-02 02:49:03.145,29,234B9614-18C8-49ED-8B56-CAB6C4F40872,my_iOS_device_1,1456908543.000027,40.79921912405714,-96.68579162107471,366.4678,0.15,104.0625,4,13.53743972944948,-9999,1456908543.141584,10.46053504943848,30.52047729492188,-17.79974365234375,204.7475433349609,201.4704132080078,25,11276.548602125,0.060333251953125,1.011016845703125,0.0662689208984375,11276.520235125,-0.06453185532203705,0.0392326239146113,-0.02440361033283209,11276.520235125,0.7659910089835755,2.57090676136629,-1.477173375023174,-0.04318100586533546,0.009742703288793564,-0.01797626726329327,0.003086723852902651,0.008056796155869961,-0.008298001252114773,XArbitraryCorrectedZVertical,0.4409279366547255,-0.5872974738541533,0.5214355083436149,-0.4344758250125759,0.05050214380025864,0.9956205487251282,0.07867153733968735,9.461551666259766,31.23723602294922,-19.21983909606934,1,11263.50103429167,walking,0,2016-03-02 02:48:50.072,2016-03-02 02:47:07.556,84,57.67838,2,2,2016-03-02 02:49:00.448,11275.357469125,0,0.3888245,97.38637,192.168.1.101,100.78.239.175,2,1,0.35,0
2016-03-02 02:49:03.154,30,234B9614-18C8-49ED-8B56-CAB6C4F40872,my_iOS_device_1,1456908543.000027,40.79921912405714,-96.68579162107471,366.4678,0.15,104.0625,4,13.53743972944948,-9999,1456908543.141584,10.46053504943848,30.52047729492188,-17.79974365234375,204.7475433349609,201.4704132080078,25,11276.57885229167,0.0530242919921875,1.016448974609375,0.0816497802734375,11276.55518929167,-0.07617519560786347,0.03708531712768041,-0.02883457775450593,11276.55518929167,0.7769056503939912,2.582037826303346,-1.476307033577629,-0.0548219345510006,0.007595211733132601,-0.02240609563887119,0.01025208830833435,0.01547763869166374,-0.01369084417819977,XArbitraryCorrectedZVertical,0.4412549982411119,-0.5876001269478284,0.5212049731779984,-0.4340109368122426,0.05008116364479065,0.9955391883850098,0.07995976507663727,9.441257476806641,31.27276420593262,-19.17198944091797,1,11263.50103429167,walking,0,2016-03-02 02:48:50.072,2016-03-02 02:47:07.556,84,57.67838,2,2,2016-03-02 02:49:00.448,11275.357469125,0,0.3888245,97.38637,192.168.1.101,100.78.239.175,2,1,0.35,0
2016-03-02 02:49:03.183,31,234B9614-18C8-49ED-8B56-CAB6C4F40872,my_iOS_device_1,1456908543.000027,40.79921912405714,-96.68579162107471,366.4678,0.15,104.0625,4,13.53743972944948,-9999,1456908543.141584,10.46053504943848,30.52047729492188,-17.79974365234375,204.7475433349609,201.4704132080078,25,11276.60914629167,0.04803466796875,1.005386352539062,0.0757598876953125,11276.59017429167,-0.05178490108048178,0.03605494010192876,-0.02315112567216783,11276.55518929167,0.7769056503939912,2.582037826303346,-1.476307033577629,-0.0548219345510006,0.007595211733132601,-0.02240609563887119,0.01025208830833435,0.01547763869166374,-0.01369084417819977,XArbitraryCorrectedZVertical,0.4412549982411119,-0.5876001269478284,0.5212049731779984,-0.4340109368122426,0.05008116364479065,0.9955391883850098,0.07995976507663727,9.441257476806641,31.27276420593262,-19.17198944091797,1,11263.50103429167,walking,0,2016-03-02 02:48:50.072,2016-03-02 02:47:07.556,84,57.67838,2,2,2016-03-02 02:49:00.448,11275.357469125,0,0.3888245,97.38637,192.168.1.101,100.78.239.175,2,1,0.35,0
2016-03-02 02:49:03.224,32,234B9614-18C8-49ED-8B56-CAB6C4F40872,my_iOS_device_1,1456908543.000027,40.79921912405714,-96.68579162107471,366.4678,0.15,104.0625,4,13.53743972944948,-9999,1456908543.203269,10.04485511779785,31.007568359375,-17.8658447265625,204.7180786132812,201.4409484863281,25,11276.63944129167,0.052734375,1.013809204101562,0.0738067626953125,11276.62521129167,-0.05168982622956595,0.04560796524815199,-0.02954910387497419,11276.59017429167,0.7879753533834017,2.593278558201647,-1.475478812573801,-0.03043095208704472,0.006564958021044731,-0.01672196388244629,0.002591337775811553,0.01769235171377659,0.001725499634630978,XArbitraryCorrectedZVertical,0.4416040408475894,-0.5878745699454637,0.5209835680939688,-0.4335498620626928,0.0496089793741703,0.9954607486724854,0.08122127503156662,9.438447952270508,31.28750038146973,-19.14931106567383,1,11263.50103429167,walking,0,2016-03-02 02:48:50.072,2016-03-02 02:47:07.556,84,57.67838,2,2,2016-03-02 02:49:00.448,11275.357469125,0,0.3888245,97.38637,192.168.1.101,100.78.239.175,2,1,0.35,0
2016-03-02 02:49:03.245,33,234B9614-18C8-49ED-8B56-CAB6C4F40872,my_iOS_device_1,1456908543.000027,40.79921912405714,-96.68579162107471,366.4678,0.15,104.0625,4,13.53743972944948,-9999,1456908543.203269,10.04485511779785,31.007568359375,-17.8658447265625,204.7180786132812,201.4409484863281,25,11276.66972529167,0.0534210205078125,1.000167846679688,0.079010009765625,11276.66022729167,-0.07393627607943386,0.02961967764386129,-0.03732420267746053,11276.62521129167,0.7986003729859338,2.60437947889594,-1.475373499674846,-0.03033473342657089,0.01611796580255032,-0.02312035672366619,-6.127820142864948e-06,0.01314000226557255,-0.01012546755373478,XArbitraryCorrectedZVertical,0.4418389221186641,-0.5879684380805945,0.5210951250196429,-0.4330489041699935,0.04875795915722847,0.9954506754875183,0.08185703307390213,9.426475524902344,31.3192195892334,-19.10330390930176,1,11263.50103429167,walking,0,2016-03-02 02:48:50.072,2016-03-02 02:47:07.556,84,57.67838,2,2,2016-03-02 02:49:00.448,11276.67231929167,0,0.6198425,97.38368,192.168.1.101,100.78.239.175,2,1,0.35,0
2016-03-02 02:49:03.276,34,234B9614-18C8-49ED-8B56-CAB6C4F40872,my_iOS_device_1,1456908543.000027,40.79921912405714,-96.68579162107471,366.4678,0.15,104.0625,4,13.53743972944948,-9999,1456908543.265708,9.352060317993164,31.00759887695312,-17.99810791015625,204.6589660644531,201.3818359375,25,11276.70004329167,0.0305633544921875,0.99688720703125,0.08868408203125,11276.69523829167,-0.08129059542968768,0.01470597553941755,-0.04488358543165044,11276.66022729167,0.8098519826178995,2.615730422754436,-1.475059579300407,-0.05257862433791161,0.0001295517868129537,-0.03089474514126778,0.004690800793468952,0.01036234386265278,-0.007266530301421881,XArbitraryCorrectedZVertical,0.4422013730291183,-0.5880439428268216,0.5210547462156342,-0.4326248010019721,0.04798253998160362,0.9954207539558411,0.08267546445131302,9.394742965698242,31.3546257019043,-19.06080436706543,1,11263.50103429167,walking,0,2016-03-02 02:48:50.072,2016-03-02 02:47:07.556,84,57.67838,2,2,2016-03-02 02:49:00.448,11276.67231929167,0,0.6198425,97.38368,192.168.1.101,100.78.239.175,2,1,0.35,0
2016-03-02 02:49:03.311,35,234B9614-18C8-49ED-8B56-CAB6C4F40872,my_iOS_device_1,1456908543.000027,40.79921912405714,-96.68579162107471,366.4678,0.15,104.0625,4,13.53743972944948,-9999,1456908543.265708,9.352060317993164,31.00759887695312,-17.99810791015625,204.6589660644531,201.3818359375,25,11276.73036529167,0.051849365234375,1.01092529296875,0.0929412841796875,11276.73024929167,-0.1015820187233284,0.04235970766658235,-0.03773219895646066,11276.69523829167,0.8274218656394777,2.632874694363217,-1.473719498896198,-0.0599323958158493,-0.0147840203717351,-0.03845271468162537,0.01129438448697329,0.0131768835708499,0.002736232709139585,XArbitraryCorrectedZVertical,0.4429609429790535,-0.5883120167851522,0.5205646360646101,-0.4320729493733691,0.04720781370997429,0.9952917695045471,0.08465085178613663,9.378458023071289,31.37703704833984,-19.03192710876465,1,11263.50103429167,walking,0,2016-03-02 02:48:50.072,2016-03-02 02:47:07.556,84,57.67838,2,2,2016-03-02 02:49:00.448,11276.67231929167,0,0.6198425,97.38368,192.168.1.101,100.78.239.175,2,1,0.35,0
2016-03-02 02:49:03.336,36,234B9614-18C8-49ED-8B56-CAB6C4F40872,my_iOS_device_1,1456908543.000027,40.79921912405714,-96.68579162107471,366.4678,0.15,104.0625,4,13.53743972944948,-9999,1456908543.319401,9.074941635131836,31.14674377441406,-17.8658447265625,204.5709381103516,201.2938079833984,25,11276.76066229167,0.037750244140625,1.010894775390625,0.110565185546875,11276.73024929167,-0.1015820187233284,0.04235970766658235,-0.03773219895646066,11276.73024929167,0.8513777894385406,2.657002130710983,-1.471762392344677,-0.08022493869066238,0.01287001837044954,-0.03130224347114563,0.005835948511958122,0.01394831575453281,0.005559530574828386,XArbitraryCorrectedZVertical,0.4438311550091565,-0.5888617735237954,0.5200366702034658,-0.4310656320902045,0.04605919495224953,0.9951001405715942,0.0874885618686676,9.337170600891113,31.43990325927734,-18.94829368591309,1,11263.50103429167,walking,0,2016-03-02 02:48:50.072,2016-03-02 02:47:07.556,84,57.67838,2,2,2016-03-02 02:49:00.448,11276.67231929167,0,0.6198425,97.38368,192.168.1.101,100.78.239.175,2,1,0.35,0
2016-03-02 02:49:03.393,37,234B9614-18C8-49ED-8B56-CAB6C4F40872,my_iOS_device_1,1456908543.000027,40.79921912405714,-96.68579162107471,366.4678,0.15,104.0625,4,13.53743972944948,-9999,1456908543.375385,8.624625205993652,30.90318298339844,-17.56829833984375,204.4883728027344,201.2112426757812,25,11276.79094229167,0.0377044677734375,1.013885498046875,0.0977325439453125,11276.76524429167,-0.08987689310021214,0.04874889743779145,-0.0375654850722217,11276.76524429167,0.8774556654279799,2.683455393785966,-1.46924995812908,-0.06852314621210098,0.01925986632704735,-0.03113564662635326,-0.007084357552230358,0.01604617945849895,0.01964693330228329,XArbitraryCorrectedZVertical,0.4447857108437869,-0.5895971487868394,0.5193955681666732,-0.429847783919405,0.04483460262417793,0.9948486089706421,0.09091825038194656,9.328457832336426,31.47759819030762,-18.88991165161133,1,11263.50103429167,walking,0,2016-03-02 02:48:50.072,2016-03-02 02:47:07.556,84,57.67838,2,2,2016-03-02 02:49:00.448,11276.67231929167,0,0.6198425,97.38368,192.168.1.101,100.78.239.175,2,1,0.35,0
2016-03-02 02:49:03.397,38,234B9614-18C8-49ED-8B56-CAB6C4F40872,my_iOS_device_1,1456908543.000027,40.79921912405714,-96.68579162107471,366.4678,0.15,104.0625,4,13.53743972944948,-9999,1456908543.375385,8.624625205993652,30.90318298339844,-17.56829833984375,204.4883728027344,201.2112426757812,25,11276.82125929167,0.0621185302734375,1.006484985351562,0.0822906494140625,11276.80026829167,-0.07507504376155175,0.04665085913102703,-0.03095498661442702,11276.76524429167,0.8774556654279799,2.683455393785966,-1.46924995812908,-0.06852314621210098,0.01925986632704735,-0.03113564662635326,-0.007084357552230358,0.01604617945849895,0.01964693330228329,XArbitraryCorrectedZVertical,0.4447857108437869,-0.5895971487868394,0.5193955681666732,-0.429847783919405,0.04483460262417793,0.9948486089706421,0.09091825038194656,9.328457832336426,31.47759819030762,-18.88991165161133,1,11263.50103429167,walking,0,2016-03-02 02:48:50.072,2016-03-02 02:47:07.556,84,57.67838,2,2,2016-03-02 02:49:00.448,11276.67231929167,0,0.6198425,97.38368,192.168.1.101,100.78.239.175,2,1,0.35,0
2016-03-02 02:49:03.427,39,234B9614-18C8-49ED-8B56-CAB6C4F40872,my_iOS_device_1,1456908543.000027,40.79921912405714,-96.68579162107471,366.4678,0.15,104.0625,4,13.53743972944948,-9999,1456908543.375385,8.624625205993652,30.90318298339844,-17.56829833984375,204.4883728027344,201.2112426757812,25,11276.85155829167,0.0504913330078125,1.0067138671875,0.1229248046875,11276.83526829167,-0.09841924861275031,0.02428723019319563,-0.03661127445364631,11276.80026829167,0.8993078593868808,2.706062923690054,-1.467459128199517,-0.05372460559010506,0.01716242171823978,-0.02452667243778706,-0.005814988166093826,0.01922003738582134,0.004208873491734266,XArbitraryCorrectedZVertical,0.445479894015939,-0.5901775151066274,0.5190945224966294,-0.4286945782303513,0.04351945593953133,0.9946654438972473,0.09352367371320724,9.281435012817383,31.59724235534668,-18.71249198913574,1,11263.50103429167,walking,0,2016-03-02 02:48:50.072,2016-03-02 02:47:07.556,84,57.67838,2,2,2016-03-02 02:49:00.448,11276.67231929167,0,0.6198425,97.38368,192.168.1.101,100.78.239.175,2,1,0.35,0
2016-03-02 02:49:03.482,40,234B9614-18C8-49ED-8B56-CAB6C4F40872,my_iOS_device_1,1456908543.000027,40.79921912405714,-96.68579162107471,366.4678,0.15,104.0625,4,13.53743972944948,-9999,1456908543.434275,9.00566291809082,31.42510986328125,-17.138427734375,204.4202423095703,201.1431121826172,25,11276.88186029167,0.0338134765625,1.01019287109375,0.124664306640625,11276.87030329167,-0.06970770890060604,0.03388233328464212,-0.03513348636476134,11276.83526829167,0.9092773816757075,2.715943060813787,-1.465661770616298,-0.07706717401742935,-0.005201259162276983,-0.03017952665686607,0.02312058210372925,0.01069427840411663,0.006656714249402285,XArbitraryCorrectedZVertical,0.4459884783413707,-0.5906630710202064,0.5185178970226896,-0.4281945868257598,0.04333144426345825,0.9944784641265869,0.095577172935009,9.270720481872559,31.61894035339355,-18.68112754821777,1,11263.50103429167,walking,0,2016-03-02 02:48:50.072,2016-03-02 02:47:07.556,84,57.67838,2,2,2016-03-02 02:49:00.448,11276.67231929167,0,0.6198425,97.38368,192.168.1.101,100.78.239.175,2,1,0.35,0
2016-03-02 02:49:03.488,41,234B9614-18C8-49ED-8B56-CAB6C4F40872,my_iOS_device_1,1456908543.000027,40.79921912405714,-96.68579162107471,366.4678,0.15,104.0625,4,13.53743972944948,-9999,1456908543.434275,9.00566291809082,31.42510986328125,-17.138427734375,204.4202423095703,201.1431121826172,25,11276.91215929167,0.04071044921875,1.020233154296875,0.135345458984375,11276.87030329167,-0.06970770890060604,0.03388233328464212,-0.03513348636476134,11276.87030329167,0.9278506030594023,2.734545906912057,-1.462807024244756,-0.0483611524105072,0.004394654184579849,-0.02869989164173603,0.001016091671772301,0.01437010243535042,0.01783272810280323,XArbitraryCorrectedZVertical,0.4468754311422193,-0.5914296240376765,0.5176798596624085,-0.4272246619192362,0.04266982153058052,0.9941748380661011,0.09897330403327942,9.266243934631348,31.68917846679688,-18.56396675109863,1,11263.50103429167,walking,0,2016-03-02 02:48:50.072,2016-03-02 02:47:07.556,84,57.67838,2,2,2016-03-02 02:49:00.448,11276.67231929167,0,0.6198425,97.38368,192.168.1.101,100.78.239.175,2,1,0.35,0
2016-03-02 02:49:03.524,42,234B9614-18C8-49ED-8B56-CAB6C4F40872,my_iOS_device_1,1456908543.000027,40.79921912405714,-96.68579162107471,366.4678,0.15,104.0625,4,13.53743972944948,-9999,1456908543.493092,8.555346488952637,31.52949523925781,-17.23760986328125,204.3448944091797,201.0677642822266,25,11276.94246029167,0.0341033935546875,1.013565063476562,0.11822509765625,11276.90531529167,-0.04949564780744967,0.03708771397266149,-0.03484160390928866,11276.90531529167,0.951599404376394,2.758396062937404,-1.460683774077214,-0.02815693616867065,0.007601375691592693,-0.02841063961386681,-0.006525364238768816,0.02424474060535431,0.03408128395676613,XArbitraryCorrectedZVertical,0.4479069149285423,-0.591894877645063,0.5171946358320187,-0.426086326984692,0.04108652099967003,0.9939437508583069,0.1019202992320061,9.246359825134277,31.7236328125,-18.51497077941895,1,11263.50103429167,walking,0,2016-03-02 02:48:50.072,2016-03-02 02:47:07.556,84,57.67838,2,2,2016-03-02 02:49:00.448,11276.67231929167,0,0.6198425,97.38368,192.168.1.101,100.78.239.175,2,1,0.35,0
2016-03-02 02:49:03.564,43,234B9614-18C8-49ED-8B56-CAB6C4F40872,my_iOS_device_1,1456908543.000027,40.79921912405714,-96.68579162107471,366.4678,0.15,104.0625,4,13.53743972944948,-9999,1456908543.551968,8.589985847473145,31.77301025390625,-16.74169921875,204.2808837890625,201.0037536621094,25,11276.97276229167,0.0371246337890625,1.005264282226562,0.1219482421875,11276.94032629167,-0.0006117281023912011,0.0360698538040332,-0.03093394764181539,11276.94032629167,0.9629664133900353,2.769972386040529,-1.459959733576601,0.02072103507816792,0.006584340706467628,-0.02450312487781048,-0.0003092900733463466,0.02551475167274475,0.02203195542097092,XArbitraryCorrectedZVertical,0.4483423467616404,-0.5920463991947968,0.5171123750837755,-0.4255173237788872,0.0401652455329895,0.9938638806343079,0.1030595973134041,9.201869964599609,31.79673194885254,-18.41145324707031,1,11263.50103429167,walking,0,2016-03-02 02:48:50.072,2016-03-02 02:47:07.556,84,57.67838,2,2,2016-03-02 02:49:00.448,11276.67231929167,0,0.6198425,97.38368,192.168.1.101,100.78.239.175,2,1,0.35,0
2016-03-02 02:49:03.579,44,234B9614-18C8-49ED-8B56-CAB6C4F40872,my_iOS_device_1,1456908543.000027,40.79921912405714,-96.68579162107471,366.4678,0.15,104.0625,4,13.53743972944948,-9999,1456908543.551968,8.589985847473145,31.77301025390625,-16.74169921875,204.2808837890625,201.0037536621094,25,11277.00306329167,0.0456390380859375,0.99847412109375,0.1287078857421875,11276.97534229167,-0.02835893718381777,0.03074965689438191,-0.02493970466026504,11276.97534229167,0.9739634184365999,2.781155740758642,-1.460073994647647,-0.00702982721850276,0.001264980179257691,-0.01851086318492889,-0.00184552266728133,0.01138774026185274,0.01855218037962914,XArbitraryCorrectedZVertical,0.4486946812091598,-0.59192154384286,0.5173221610815669,-0.4250644076409869,0.03897015750408173,0.9938765168190002,0.1033960655331612,9.188823699951172,31.81219100952148,-18.3912525177002,1,11263.50103429167,walking,0,2016-03-02 02:48:50.072,2016-03-02 02:47:07.556,84,57.67838,2,2,2016-03-02 02:49:00.448,11276.67231929167,0,0.6198425,97.38368,192.168.1.101,100.78.239.175,2,1,0.35,0
2016-03-02 02:49:03.640,45,234B9614-18C8-49ED-8B56-CAB6C4F40872,my_iOS_device_1,1456908543.000027,40.79921912405714,-96.68579162107471,366.4678,0.15,104.0625,4,13.53743972944948,-9999,1456908543.6104,8.520707130432129,31.98178100585938,-16.01434326171875,204.2237701416016,200.9466400146484,25,11277.03336729167,0.02935791015625,0.9980316162109375,0.11688232421875,11277.01035329167,-0.01867621609250768,0.04030694309834927,-0.03226419660630997,11276.97534229167,0.9739634184365999,2.781155740758642,-1.460073994647647,-0.00702982721850276,0.001264980179257691,-0.01851086318492889,-0.00184552266728133,0.01138774026185274,0.01855218037962914,XArbitraryCorrectedZVertical,0.4486946812091598,-0.59192154384286,0.5173221610815669,-0.4250644076409869,0.03897015750408173,0.9938765168190002,0.1033960655331612,9.188823699951172,31.81219100952148,-18.3912525177002,1,11263.50103429167,walking,0,2016-03-02 02:48:50.072,2016-03-02 02:47:07.556,84,57.67838,2,2,2016-03-02 02:49:00.448,11276.67231929167,0,0.6198425,97.38368,192.168.1.101,100.78.239.175,2,1,0.35,0
2016-03-02 02:49:03.642,46,234B9614-18C8-49ED-8B56-CAB6C4F40872,my_iOS_device_1,1456908543.000027,40.79921912405714,-96.68579162107471,366.4678,0.15,104.0625,4,13.53743972944948,-9999,1456908543.6104,8.520707130432129,31.98178100585938,-16.01434326171875,204.2237701416016,200.9466400146484,25,11277.06366929167,0.0369720458984375,1.00421142578125,0.120147705078125,11277.04536329167,-0.08361100768747372,0.03069639367258032,-0.03000503705359575,11277.01035329167,0.980597178518712,2.787932973463048,-1.458966376262942,0.002646953565999866,0.01082262769341469,-0.0258330050855875,0.006989277899265289,0.004720576107501984,0.0240174476057291,XArbitraryCorrectedZVertical,0.4490118327052474,-0.592227653252835,0.5170445133653834,-0.4246407328696334,0.03864976018667221,0.9937535524368286,0.1046904399991035,9.152185440063477,31.84576034545898,-18.35138320922852,1,11263.50103429167,walking,0,2016-03-02 02:48:50.072,2016-03-02 02:47:07.556,84,57.67838,2,2,2016-03-02 02:49:00.448,11276.67231929167,0,0.6198425,97.38368,192.168.1.101,100.78.239.175,2,1,0.35,0
2016-03-02 02:49:03.670,47,234B9614-18C8-49ED-8B56-CAB6C4F40872,my_iOS_device_1,1456908543.000027,40.79921912405714,-96.68579162107471,366.4678,0.15,104.0625,4,13.53743972944948,-9999,1456908543.6104,8.520707130432129,31.98178100585938,-16.01434326171875,204.2237701416016,200.9466400146484,25,11277.09397029167,0.0357208251953125,1.006423950195312,0.11688232421875,11277.08036129167,-0.1006395260135494,0.03706694131615887,-0.0291898434439225,11277.04536329167,0.9973895015962165,2.804954507844039,-1.457450623251154,-0.06229286640882492,0.001213114243000746,-0.02357576601207256,-0.003149557625874877,0.007301759906113148,0.01287417113780975,XArbitraryCorrectedZVertical,0.4497369678919204,-0.5925487553018781,0.5167761504270343,-0.4237511565192271,0.03735976293683052,0.9935832619667053,0.1067547351121902,9.121397018432617,31.88723754882812,-18.29459762573242,1,11263.50103429167,walking,0,2016-03-02 02:48:50.072,2016-03-02 02:47:07.556,84,57.67838,2,2,2016-03-02 02:49:00.448,11276.67231929167,0,0.6198425,97.38368,192.168.1.101,100.78.239.175,2,1,0.35,0
2016-03-02 02:49:03.723,48,234B9614-18C8-49ED-8B56-CAB6C4F40872,my_iOS_device_1,1456908543.000027,40.79921912405714,-96.68579162107471,366.4678,0.15,104.0625,4,13.53743972944948,-9999,1456908543.671372,8.174308776855469,32.05136108398438,-16.5433349609375,204.1550445556641,200.8779144287109,25,11277.12425629167,0.0257568359375,1.011459350585938,0.1292572021484375,11277.11539129167,-0.09950688360193867,0.05088022525818186,-0.03344344433699706,11277.08036129167,1.013499722219753,2.821074800792512,-1.454574447961378,-0.07931452244520187,0.007555494550615549,-0.02275672741234303,-0.00238509476184845,0.007707467302680016,0.004065659362822771,XArbitraryCorrectedZVertical,0.4506516878123784,-0.5932457065443562,0.5159919432873952,-0.4227586810475101,0.03653426468372345,0.9932538270950317,0.1100548207759857,9.104965209960938,31.92476272583008,-18.23725128173828,1,11263.50103429167,walking,0,2016-03-02 02:48:50.072,2016-03-02 02:47:07.556,84,57.67838,2,2,2016-03-02 02:49:00.448,11276.67231929167,0,0.6198425,97.38368,192.168.1.101,100.78.239.175,2,1,0.35,0
2016-03-02 02:49:03.730,49,234B9614-18C8-49ED-8B56-CAB6C4F40872,my_iOS_device_1,1456908543.000027,40.79921912405714,-96.68579162107471,366.4678,0.15,104.0625,4,13.53743972944948,-9999,1456908543.671372,8.174308776855469,32.05136108398438,-16.5433349609375,204.1550445556641,200.8779144287109,25,11277.15455429167,0.0200958251953125,1.004165649414062,0.125518798828125,11277.11539129167,-0.09950688360193867,0.05088022525818186,-0.03344344433699706,11277.11539129167,1.031923482425206,2.83980706215295,-1.451589997248883,-0.0781843438744545,0.0213694479316473,-0.02701170742511749,-0.004982325714081526,0.0188459325581789,0.01482249330729246,XArbitraryCorrectedZVertical,0.4516189601007368,-0.5939824614940931,0.5152923568606167,-0.4215435176538343,0.03534731641411781,0.9929033517837524,0.1135497018694878,9.076848030090332,32.00063323974609,-18.11790466308594,1,11263.50103429167,walking,0,2016-03-02 02:48:50.072,2016-03-02 02:47:07.556,84,57.67838,2,2,2016-03-02 02:49:00.448,11276.67231929167,0,0.6198425,97.38368,192.168.1.101,100.78.239.175,2,1,0.35,0
2016-03-02 02:49:03.809,50,234B9614-18C8-49ED-8B56-CAB6C4F40872,my_iOS_device_1,1456908543.000027,40.79921912405714,-96.68579162107471,366.4678,0.15,104.0625,4,13.53743972944948,-9999,1456908543.788774,8.035748481750488,32.6776123046875,-15.882080078125,204.0078125,200.7306823730469,25,11277.18485529167,0.0280914306640625,1.010101318359375,0.1238555908203125,11277.15039329167,-0.07722208423237362,0.05941592286799482,-0.02886120936540672,11277.15039329167,1.050930011846826,2.859772852521377,-1.449319243620239,-0.05590268597006798,0.02990611456334591,-0.02243240922689438,-0.01406218856573105,0.0105125829577446,0.01295059733092785,XArbitraryCorrectedZVertical,0.452387461887838,-0.5945962183505025,0.5150213682157251,-0.4201831883014295,0.03370025008916855,0.9926307201385498,0.1163981556892395,9.059590339660645,32.04581451416016,-18.04654312133789,1,11263.50103429167,walking,0,2016-03-02 02:48:50.072,2016-03-02 02:47:07.556,84,57.67838,2,2,2016-03-02 02:49:00.448,11276.67231929167,0,0.6198425,97.38368,192.168.1.101,100.78.239.175,2,1,0.35,0
2016-03-02 02:49:03.812,51,234B9614-18C8-49ED-8B56-CAB6C4F40872,my_iOS_device_1,1456908543.000027,40.79921912405714,-96.68579162107471,366.4678,0.15,104.0625,4,13.53743972944948,-9999,1456908543.788774,8.035748481750488,32.6776123046875,-15.882080078125,204.0078125,200.7306823730469,25,11277.21514929167,0.0288543701171875,1.014755249023438,0.1282196044921875,11277.18541829167,-0.07509155536031023,0.06367112165772343,-0.02883244722563386,11277.18541829167,1.067344985574927,2.877356618725956,-1.447699195130837,-0.05377345904707909,0.0341622605919838,-0.02240682207047939,-0.003976949024945498,0.01766820810735226,0.005330739077180624,XArbitraryCorrectedZVertical,0.4529389927243597,-0.5950703275813274,0.5150019471048372,-0.4189398149857714,0.03206837922334671,0.9924331307411194,0.1185248494148254,9.022720336914062,32.12062454223633,-17.93164825439453,1,11263.50103429167,walking,0,2016-03-02 02:48:50.072,2016-03-02 02:47:07.556,84,57.67838,2,2,2016-03-02 02:49:00.448,11276.67231929167,0,0.6198425,97.38368,192.168.1.101,100.78.239.175,2,1,0.35,0
2016-03-02 02:49:03.821,52,234B9614-18C8-49ED-8B56-CAB6C4F40872,my_iOS_device_1,1456908543.000027,40.79921912405714,-96.68579162107471,366.4678,0.15,104.0625,4,13.53743972944948,-9999,1456908543.788774,8.035748481750488,32.6776123046875,-15.882080078125,204.0078125,200.7306823730469,25,11277.24546629167,0.033203125,1.01434326171875,0.1234283447265625,11277.22042929167,-0.04332803303893516,0.06372438487952502,-0.01771374967455305,11277.22042929167,1.075756605916588,2.886935788047218,-1.44634439800227,-0.02201171033084393,0.03421592339873314,-0.01128892041742802,-0.002415866358205676,0.0224894005805254,0.008091933093965054,XArbitraryCorrectedZVertical,0.4531468549221497,-0.5955852279829283,0.5149492214117712,-0.4180472024186852,0.03127023577690125,0.9922658205032349,0.1201276704668999,9.008954048156738,32.14806365966797,-17.88935089111328,1,11263.50103429167,walking,0,2016-03-02 02:48:50.072,2016-03-02 02:47:07.556,84,57.67838,2,2,2016-03-02 02:49:00.448,11276.67231929167,0,0.6198425,97.38368,192.168.1.101,100.78.239.175,2,1,0.35,0
2016-03-02 02:49:03.884,53,234B9614-18C8-49ED-8B56-CAB6C4F40872,my_iOS_device_1,1456908543.000027,40.79921912405714,-96.68579162107471,366.4678,0.15,104.0625,4,13.53743972944948,-9999,1456908543.847435,7.550789833068848,32.74717712402344,-15.4853515625,203.9359283447266,200.6587982177734,25,11277.27576629167,0.0264129638671875,0.9990234375,0.12396240234375,11277.25544029167,-0.01453420164910744,0.0658581095448965,-0.02262541767298618,11277.25544029167,1.079851066767572,2.892285070344959,-1.446201350975409,0.006781513337045908,0.0363498367369175,-0.01620045304298401,0.002540908521041274,0.02209517918527126,0.002997567877173424,XArbitraryCorrectedZVertical,0.4530069922113908,-0.5958188092034953,0.5152570638389438,-0.4174862509963403,0.03066221624612808,0.9922480583190918,0.1204307749867439,8.121068000793457,34.33331298828125,-14.8003568649292,1,11263.50103429167,walking,0,2016-03-02 02:48:50.072,2016-03-02 02:47:07.556,84,57.67838,2,2,2016-03-02 02:49:00.448,11276.67231929167,0,0.6198425,97.38368,192.168.1.101,100.78.239.175,2,1,0.35,0
2016-03-02 02:49:03.892,54,234B9614-18C8-49ED-8B56-CAB6C4F40872,my_iOS_device_1,1456908543.000027,40.79921912405714,-96.68579162107471,366.4678,0.15,104.0625,4,13.53743972944948,-9999,1456908543.847435,7.550789833068848,32.74717712402344,-15.4853515625,203.9359283447266,200.6587982177734,25,11277.30606529167,0.025848388671875,1.007186889648438,0.12115478515625,11277.29044129167,-0.01464978284041688,0.06800834580902648,-0.01410223692029659,11277.25544029167,1.079851066767572,2.892285070344959,-1.446201350975409,0.006781513337045908,0.0363498367369175,-0.01620045304298401,0.002540908521041274,0.02209517918527126,0.002997567877173424,XArbitraryCorrectedZVertical,0.4530069922113908,-0.5958188092034953,0.5152570638389438,-0.4174862509963403,0.03066221624612808,0.9922480583190918,0.1204307749867439,8.121068000793457,34.33331298828125,-14.8003568649292,1,11263.50103429167,walking,0,2016-03-02 02:48:50.072,2016-03-02 02:47:07.556,84,57.67838,2,2,2016-03-02 02:49:00.448,11276.67231929167,0,0.6198425,97.38368,192.168.1.101,100.78.239.175,2,1,0.35,0
2016-03-02 02:49:03.927,55,234B9614-18C8-49ED-8B56-CAB6C4F40872,my_iOS_device_1,1456908543.000027,40.79921912405714,-96.68579162107471,366.4678,0.15,104.0625,4,13.53743972944948,-9999,1456908543.906198,7.100473880767822,32.71238708496094,-15.65069580078125,203.8406372070312,200.5635070800781,25,11277.33636529167,0.03192138671875,1.009201049804688,0.1248321533203125,11277.32546729167,-0.01580692633405631,0.0605813221610135,-0.007720770316248719,11277.29044129167,1.084832718338418,2.898568318391393,-1.446643014778065,0.006665809080004692,0.03850055485963821,-0.007678559049963951,-0.005934712942689657,0.007391951978206635,0.003064815420657396,XArbitraryCorrectedZVertical,0.4528142559411389,-0.595866672102334,0.5157907669506467,-0.4169676767120174,0.02979945950210094,0.9923028945922852,0.1201956793665886,8.120114326477051,34.33452987670898,-14.79805183410645,1,11263.50103429167,walking,0,2016-03-02 02:48:50.072,2016-03-02 02:47:07.556,84,57.67838,2,2,2016-03-02 02:49:00.448,11276.67231929167,0,0.6198425,97.38368,192.168.1.101,100.78.239.175,2,1,0.35,0
2016-03-02 02:49:03.969,56,234B9614-18C8-49ED-8B56-CAB6C4F40872,my_iOS_device_1,1456908543.000027,40.79921912405714,-96.68579162107471,366.4678,0.15,104.0625,4,13.53743972944948,-9999,1456908543.966021,7.827911376953125,32.26004028320312,-15.35308837890625,203.77783203125,200.5007019042969,25,11277.36666229167,0.0316314697265625,1.0123291015625,0.1273193359375,11277.36047929167,-0.0008607336643136098,0.03611965491641769,-0.01281992485542344,11277.32546729167,1.0865318402493,2.901553571800673,-1.446881230787132,0.00550831388682127,0.03107391111552715,-0.001298116520047188,0.000919641344808042,0.019218560308218,0.004258857108652592,XArbitraryCorrectedZVertical,0.4525191472953332,-0.5960316015352406,0.5161931608218678,-0.4165541645730609,0.02938431315124035,0.9923323392868042,0.1200544983148575,8.11967658996582,34.33664703369141,-14.79337692260742,1,11263.50103429167,walking,0,2016-03-02 02:48:50.072,2016-03-02 02:47:07.556,84,57.67838,2,2,2016-03-02 02:49:00.448,11276.67231929167,0,0.6198425,97.38368,192.168.1.101,100.78.239.175,2,1,0.35,0
2016-03-02 02:49:03.973,57,234B9614-18C8-49ED-8B56-CAB6C4F40872,my_iOS_device_1,1456908543.000027,40.79921912405714,-96.68579162107471,366.4678,0.15,104.0625,4,13.53743972944948,-9999,1456908543.966021,7.827911376953125,32.26004028320312,-15.35308837890625,203.77783203125,200.5007019042969,25,11277.39696129167,0.03271484375,1.005218505859375,0.14007568359375,11277.36047929167,-0.0008607336643136098,0.03611965491641769,-0.01281992485542344,11277.36047929167,1.08548277629787,2.901079773949907,-1.447326486872926,0.02045406028628349,0.006612306460738182,-0.006396406330168247,0.00470641627907753,0.01618816144764423,0.0007346435450017452,XArbitraryCorrectedZVertical,0.4522703366012196,-0.5960346093418414,0.5164554182128316,-0.4164950036866444,0.02933594211935997,0.9923872947692871,0.1196114271879196,8.132503509521484,34.3356819152832,-14.7885684967041,1,11263.50103429167,walking,0,2016-03-02 02:48:50.072,2016-03-02 02:47:07.556,84,57.67838,2,2,2016-03-02 02:49:00.448,11276.67231929167,0,0.6198425,97.38368,192.168.1.101,100.78.239.175,2,1,0.35,0
2016-03-02 02:49:04.039,58,234B9614-18C8-49ED-8B56-CAB6C4F40872,my_iOS_device_1,1456908543.000027,40.79921912405714,-96.68579162107471,366.4678,0.15,104.0625,4,13.53743972944948,-9999,1456908544.025661,8.174308776855469,31.49458312988281,-15.94830322265625,203.7370147705078,200.4598846435547,25,11277.42726129167,0.0261993408203125,1.009689331054688,0.1283416748046875,11277.39549529167,0.01290701022306903,0.01487082521089346,-0.009411877608449035,11277.39549529167,1.083123076849542,2.898521339275317,-1.448017866163011,0.03421930223703384,-0.01463653333485126,-0.002987051615491509,0.008166713640093803,0.01353977434337139,0.01513268053531647,XArbitraryCorrectedZVertical,0.4521374754503629,-0.5958243918781051,0.5166030067276938,-0.4167569204900566,0.0294767189770937,0.9924721717834473,0.1188700050115585,8.135345458984375,34.33157348632812,-14.79654216766357,1,11263.50103429167,walking,0,2016-03-02 02:48:50.072,2016-03-02 02:47:07.556,84,57.67838,2,2,2016-03-02 02:49:00.448,11276.67231929167,0,0.6198425,97.38368,192.168.1.101,100.78.239.175,2,1,0.35,0
2016-03-02 02:49:04.044,59,234B9614-18C8-49ED-8B56-CAB6C4F40872,my_iOS_device_1,1456908543.000027,40.79921912405714,-96.68579162107471,366.4678,0.15,104.0625,4,13.53743972944948,-9999,1456908544.025661,8.174308776855469,31.49458312988281,-15.94830322265625,203.7370147705078,200.4598846435547,25,11277.45755829167,0.0223846435546875,1.002548217773438,0.149810791015625,11277.43050629167,0.02132792558989958,-0.005312740058599072,-0.003950533161023542,11277.43050629167,1.083809951241425,2.898409175669269,-1.448502869347873,0.04263541847467422,-0.03481955826282501,0.00247359904460609,-0.003174800658598542,0.01715786010026932,0.009942179545760155,XArbitraryCorrectedZVertical,0.4523076683205798,-0.5954977085315725,0.5165990051353726,-0.4170440266988366,0.0293741412460804,0.9925314784049988,0.1183994933962822,8.131301879882812,34.31558227539062,-14.83580780029297,1,11263.50103429167,walking,0,2016-03-02 02:48:50.072,2016-03-02 02:47:07.556,84,57.67838,2,2,2016-03-02 02:49:00.448,11276.67231929167,0,0.6198425,97.38368,192.168.1.101,100.78.239.175,2,1,0.35,0
2016-03-02 02:49:04.064,60,234B9614-18C8-49ED-8B56-CAB6C4F40872,my_iOS_device_1,1456908543.000027,40.79921912405714,-96.68579162107471,366.4678,0.15,104.0625,4,13.53743972944948,-9999,1456908544.025661,8.174308776855469,31.49458312988281,-15.94830322265625,203.7370147705078,200.4598846435547,25,11277.48784329167,0.022613525390625,1.003890991210938,0.1259002685546875,11277.46551629167,0.01385882399666335,-0.01701280567564419,-0.002987267794741881,11277.46551629167,1.084376552817556,2.897564289756684,-1.448811063160711,0.03516009449958801,-0.04651892185211182,0.003435257822275162,-0.007015612442046404,0.009979198686778545,0.03173299133777618,XArbitraryCorrectedZVertical,0.4526542325880638,-0.5950991900054835,0.5163941800858907,-0.4174902999452072,0.02940025553107262,0.9925690293312073,0.1180777996778488,8.131301879882812,34.31558227539062,-14.83580780029297,1,11263.50103429167,walking,0,2016-03-02 02:48:50.072,2016-03-02 02:47:07.556,84,57.67838,2,2,2016-03-02 02:49:00.448,11276.67231929167,0,0.6198425,97.38368,192.168.1.101,100.78.239.175,2,1,0.35,0
2016-03-02 02:49:04.126,61,234B9614-18C8-49ED-8B56-CAB6C4F40872,my_iOS_device_1,1456908544.000027,40.7992169028528,-96.68578751394216,366.582,0.25,92.8125,4,13.85706932542694,-9999,1456908544.08477,7.620071887969971,31.07704162597656,-16.2127685546875,203.6908721923828,200.4137420654297,25,11277.51814129167,0.0370635986328125,0.9980621337890625,0.1352081298828125,11277.50053329167,0.01273923107439404,-0.03295581954140355,0.0002018676106280062,11277.46551629167,1.084376552817556,2.897564289756684,-1.448811063160711,0.03516009449958801,-0.04651892185211182,0.003435257822275162,-0.007015612442046404,0.009979198686778545,0.03173299133777618,XArbitraryCorrectedZVertical,0.4526542325880638,-0.5950991900054835,0.5163941800858907,-0.4174902999452072,0.02940025553107262,0.9925690293312073,0.1180777996778488,8.131301879882812,34.31558227539062,-14.83580780029297,1,11263.50103429167,walking,0,2016-03-02 02:48:50.072,2016-03-02 02:47:07.556,84,57.67838,2,2,2016-03-02 02:49:00.448,11276.67231929167,0,0.6198425,97.38368,192.168.1.101,100.78.239.175,2,1,0.35,0
2016-03-02 02:49:04.129,62,234B9614-18C8-49ED-8B56-CAB6C4F40872,my_iOS_device_1,1456908544.000027,40.7992169028528,-96.68578751394216,366.582,0.25,92.8125,4,13.85706932542694,-9999,1456908544.08477,7.620071887969971,31.07704162597656,-16.2127685546875,203.6908721923828,200.4137420654297,25,11277.54845429167,0.0189971923828125,1.006607055664062,0.1405487060546875,11277.53554429167,5.326322180158476e-06,-0.03190786565245737,-0.002115082537740931,11277.50053329167,1.084967044624005,2.896293126109639,-1.449327929360531,0.03403651714324951,-0.06246118992567062,0.006622541230171919,-0.001456377562135458,0.009809625335037708,0.01726875267922878,XArbitraryCorrectedZVertical,0.4530904659272417,-0.5945421382793199,0.5161582875585633,-0.4181020182690947,0.02942573837935925,0.9926317930221558,0.1175426468253136,8.084264755249023,34.30837249755859,-14.87811851501465,1,11263.50103429167,walking,0,2016-03-02 02:48:50.072,2016-03-02 02:47:07.556,84,57.67838,2,2,2016-03-02 02:49:00.448,11276.67231929167,0,0.6198425,97.38368,192.168.1.101,100.78.239.175,2,1,0.35,0
2016-03-02 02:49:04.201,63,234B9614-18C8-49ED-8B56-CAB6C4F40872,my_iOS_device_1,1456908544.000027,40.7992169028528,-96.68578751394216,366.582,0.25,92.8125,4,13.85706932542694,-9999,1456908544.143184,7.585432052612305,31.25100708007812,-16.57647705078125,203.6089172363281,200.331787109375,25,11277.57873529167,0.0154876708984375,1.002609252929688,0.11859130859375,11277.57055529167,-0.0002194444738225292,-0.0191001913380483,0.01492701790989413,11277.53554429167,1.081282145468131,2.890407924667725,-1.449349835997486,0.02129807136952877,-0.06141327321529388,0.0043067941442132,0.003564565675333142,0.008616786450147629,0.01563397236168385,XArbitraryCorrectedZVertical,0.4535106096222729,-0.5941391373663962,0.5156029121871024,-0.418903866482177,0.03011158108711243,0.9926344156265259,0.1173463761806488,8.050421714782715,34.29995346069336,-14.91583728790283,1,11263.50103429167,walking,0,2016-03-02 02:48:50.072,2016-03-02 02:47:07.556,84,57.67838,2,2,2016-03-02 02:49:00.448,11276.67231929167,0,0.6198425,97.38368,192.168.1.101,100.78.239.175,2,1,0.35,0
2016-03-02 02:49:04.203,64,234B9614-18C8-49ED-8B56-CAB6C4F40872,my_iOS_device_1,1456908544.000027,40.7992169028528,-96.68578751394216,366.582,0.25,92.8125,4,13.85706932542694,-9999,1456908544.200318,7.308313369750977,31.73811340332031,-16.31201171875,203.5199890136719,200.2428588867188,25,11277.60905329167,0.0321502685546875,1.012893676757812,0.1271209716796875,11277.57055529167,-0.0002194444738225292,-0.0191001913380483,0.01492701790989413,11277.57055529167,1.084856785072407,2.89217755471284,-1.449196152937485,0.02106768265366554,-0.04860411584377289,0.02134445495903492,-0.01669690012931824,0.01043595373630524,0.01064177975058556,XArbitraryCorrectedZVertical,0.4541360338641063,-0.5937458347562872,0.5152032206207811,-0.4192755512997433,0.02994152903556824,0.992615818977356,0.1175473034381866,8.040554046630859,34.2983512878418,-14.92484378814697,1,11263.50103429167,walking,0,2016-03-02 02:48:50.072,2016-03-02 02:47:07.556,84,57.67838,2,2,2016-03-02 02:49:00.448,11276.67231929167,0,0.6198425,97.38368,192.168.1.101,100.78.239.175,2,1,0.35,0
2016-03-02 02:49:04.226,65,234B9614-18C8-49ED-8B56-CAB6C4F40872,my_iOS_device_1,1456908544.000027,40.7992169028528,-96.68578751394216,366.582,0.25,92.8125,4,13.85706932542694,-9999,1456908544.200318,7.308313369750977,31.73811340332031,-16.31201171875,203.5199890136719,200.2428588867188,25,11277.63935129167,0.02581787109375,1.011856079101562,0.1025848388671875,11277.60556429167,0.003972371081962192,-0.005258145256252448,0.02030953278905328,11277.60556429167,1.079540545162408,2.885393567281039,-1.449815314303222,0.02525962702929974,-0.03476123511791229,0.02672442048788071,-0.003269295673817396,0.01829560846090317,0.004011127632111311,XArbitraryCorrectedZVertical,0.4542257013961465,-0.5933401020784079,0.5149885146798305,-0.4200159106565073,0.03058252856135368,0.9926907420158386,0.1167469322681427,7.992483139038086,34.29494476318359,-14.95846462249756,1,11263.50103429167,walking,0,2016-03-02 02:48:50.072,2016-03-02 02:47:07.556,84,57.67838,2,2,2016-03-02 02:49:00.448,11276.67231929167,0,0.6198425,97.38368,192.168.1.101,100.78.239.175,2,1,0.35,0
2016-03-02 02:49:04.282,66,234B9614-18C8-49ED-8B56-CAB6C4F40872,my_iOS_device_1,1456908544.000027,40.7992169028528,-96.68578751394216,366.582,0.25,92.8125,4,13.85706932542694,-9999,1456908544.262399,7.654711246490479,31.87730407714844,-15.9813232421875,203.4566040039062,200.1794738769531,25,11277.66964929167,0.0310821533203125,1.0018310546875,0.0968170166015625,11277.64057129167,0.03919161123382409,0.03515985165955313,0.01440583728456562,11277.64057129167,1.070568409703595,2.87607724446857,-1.451388287667726,0.06047895923256874,0.005657248198986053,0.02081969194114208,-0.005441185552626848,0.01897675171494484,-0.01236520987004042,XArbitraryCorrectedZVertical,0.4537653438667028,-0.5929351036123718,0.5152954884867428,-0.4207083730506423,0.03125905618071556,0.992879331111908,0.1149500459432602,7.999953269958496,34.28430938720703,-14.97883129119873,1,11263.50103429167,walking,0,2016-03-02 02:48:50.072,2016-03-02 02:47:07.556,84,57.67838,2,2,2016-03-02 02:49:00.448,11276.67231929167,0,0.6198425,97.38368,192.168.1.101,100.78.239.175,2,1,0.35,0
2016-03-02 02:49:04.283,67,234B9614-18C8-49ED-8B56-CAB6C4F40872,my_iOS_device_1,1456908544.000027,40.7992169028528,-96.68578751394216,366.582,0.25,92.8125,4,13.85706932542694,-9999,1456908544.262399,7.654711246490479,31.87730407714844,-15.9813232421875,203.4566040039062,200.1794738769531,25,11277.69995029167,0.04302978515625,1.003219604492188,0.0847320556640625,11277.67557029167,0.01262178567032154,0.0447075504835962,0.01294935448440129,11277.67557029167,1.061730828268657,2.867726193953911,-1.453637975652116,0.03391335904598236,0.01520545687526464,0.01936187408864498,-0.0005315659800544381,0.008686247281730175,-0.0157172679901123,XArbitraryCorrectedZVertical,0.4530206582613818,-0.5924858016643624,0.5160313147205751,-0.4212416648935719,0.03161371871829033,0.9931448101997375,0.1125342845916748,8.017714500427246,34.24024200439453,-15.06985759735107,1,11263.50103429167,walking,0,2016-03-02 02:48:50.072,2016-03-02 02:47:07.556,84,57.67838,2,2,2016-03-02 02:49:00.448,11276.67231929167,0,0.6198425,97.38368,192.168.1.101,100.78.239.175,2,1,0.35,0
2016-03-02 02:49:04.316,68,234B9614-18C8-49ED-8B56-CAB6C4F40872,my_iOS_device_1,1456908544.000027,40.7992169028528,-96.68578751394216,366.582,0.25,92.8125,4,13.85706932542694,-9999,1456908544.262399,7.654711246490479,31.87730407714844,-15.9813232421875,203.4566040039062,200.1794738769531,25,11277.73024629167,0.043487548828125,1.013641357421875,0.0911865234375,11277.71060929167,-0.02757303834613539,0.05101364962879483,-0.003623763295270819,11277.67557029167,1.061730828268657,2.867726193953911,-1.453637975652116,0.03391335904598236,0.01520545687526464,0.01936187408864498,-0.0005315659800544381,0.008686247281730175,-0.0157172679901123,XArbitraryCorrectedZVertical,0.4530206582613818,-0.5924858016643624,0.5160313147205751,-0.4212416648935719,0.03161371871829033,0.9931448101997375,0.1125342845916748,8.017714500427246,34.24024200439453,-15.06985759735107,1,11263.50103429167,walking,0,2016-03-02 02:48:50.072,2016-03-02 02:47:07.556,84,57.67838,2,2,2016-03-02 02:49:00.448,11276.67231929167,0,0.6198425,97.38368,192.168.1.101,100.78.239.175,2,1,0.35,0
2016-03-02 02:49:04.347,69,234B9614-18C8-49ED-8B56-CAB6C4F40872,my_iOS_device_1,1456908544.000027,40.7992169028528,-96.68578751394216,366.582,0.25,92.8125,4,13.85706932542694,-9999,1456908544.318436,7.654711246490479,31.94688415527344,-16.642578125,203.3812255859375,200.1040954589844,25,11277.76054529167,0.0473785400390625,1.001205444335938,0.103424072265625,11277.74562129167,-0.02966841349180974,0.03505225995151393,-0.006843258737067611,11277.71060929167,1.049575057025249,2.856208700869585,-1.455153869405781,-0.006273157428950071,0.02151116356253624,0.002791869454085827,0.01082061231136322,0.01517828647047281,-0.02018758282065392,XArbitraryCorrectedZVertical,0.4522099647362279,-0.5923387015357724,0.5165063379965542,-0.4217371376409193,0.03248383104801178,0.9933208823204041,0.1107179820537567,8.030315399169922,34.21797180175781,-15.11366558074951,1,11263.50103429167,walking,0,2016-03-02 02:48:50.072,2016-03-02 02:47:07.556,84,57.67838,2,2,2016-03-02 02:49:00.448,11276.67231929167,0,0.6198425,97.38368,192.168.1.101,100.78.239.175,2,1,0.35,0
2016-03-02 02:49:04.377,70,234B9614-18C8-49ED-8B56-CAB6C4F40872,my_iOS_device_1,1456908544.000027,40.7992169028528,-96.68578751394216,366.582,0.25,92.8125,4,13.85706932542694,-9999,1456908544.318436,7.654711246490479,31.94688415527344,-16.642578125,203.3812255859375,200.1040954589844,25,11277.79084529167,0.045867919921875,0.9997100830078125,0.1125030517578125,11277.78063129167,-0.04144011814217798,0.01804078585641478,-0.002742523290563599,11277.74562129167,1.044035110664173,2.851076594315948,-1.455758711054521,-0.008362796157598495,0.005549462977796793,-0.0004251767240930349,0.01002820115536451,0.02279910817742348,-0.01533915568143129,XArbitraryCorrectedZVertical,0.4518234434856583,-0.5923197265744827,0.5167228687980209,-0.4219127804281675,0.03287951275706291,0.9933904409408569,0.109974168241024,8.08564567565918,34.17181777954102,-15.18840789794922,1,11263.50103429167,walking,0,2016-03-02 02:48:50.072,2016-03-02 02:47:07.556,84,57.67838,2,2,2016-03-02 02:49:00.448,11276.67231929167,0,0.6198425,97.38368,192.168.1.101,100.78.239.175,2,1,0.35,0
2016-03-02 02:49:04.402,71,234B9614-18C8-49ED-8B56-CAB6C4F40872,my_iOS_device_1,1456908544.000027,40.7992169028528,-96.68578751394216,366.582,0.25,92.8125,4,13.85706932542694,-9999,1456908544.378233,7.446874618530273,32.43400573730469,-17.10546875,203.2891693115234,200.0120391845703,25,11277.82112829167,0.040557861328125,1.016067504882812,0.1129150390625,11277.81562629167,-0.06365008268511181,0.01161724130714365,-0.01265347728729348,11277.78063129167,1.037957250643024,2.84463182191072,-1.455476456531572,-0.02013278566300869,-0.01146236155182123,0.003679017536342144,0.01380046363919973,0.002033816184848547,-4.274219463695772e-05,XArbitraryCorrectedZVertical,0.4517207244071809,-0.5924208251055981,0.5164524369809654,-0.4222118348159693,0.03366962820291519,0.9933580160140991,0.1100280955433846,8.096770286560059,34.16384887695312,-15.20040702819824,1,11263.50103429167,walking,0,2016-03-02 02:48:50.072,2016-03-02 02:47:07.556,84,57.67838,2,2,2016-03-02 02:49:00.448,11276.67231929167,0,0.6198425,97.38368,192.168.1.101,100.78.239.175,2,1,0.35,0
2016-03-02 02:49:04.429,72,234B9614-18C8-49ED-8B56-CAB6C4F40872,my_iOS_device_1,1456908544.000027,40.7992169028528,-96.68578751394216,366.582,0.25,92.8125,4,13.85706932542694,-9999,1456908544.378233,7.446874618530273,32.43400573730469,-17.10546875,203.2891693115234,200.0120391845703,25,11277.85143429167,0.0247955322265625,1.011947631835938,0.1074066162109375,11277.81562629167,-0.06365008268511181,0.01161724130714365,-0.01265347728729348,11277.81562629167,1.036528682440524,2.842589929864652,-1.453945069568388,-0.04234347119927406,-0.01788618974387646,-0.006228227168321609,0.00641394080594182,0.0215288158506155,0.002051650080829859,XArbitraryCorrectedZVertical,0.4520001810427836,-0.592791859832535,0.5157640242521433,-0.4222334881801789,0.03434228524565697,0.9931806325912476,0.1114127039909363,8.122056007385254,34.16632843017578,-15.18132972717285,1,11263.50103429167,walking,0,2016-03-02 02:48:50.072,2016-03-02 02:47:07.556,84,57.67838,2,2,2016-03-02 02:49:00.448,11276.67231929167,0,0.6198425,97.38368,192.168.1.101,100.78.239.175,2,1,0.35,0
2016-03-02 02:49:04.459,73,234B9614-18C8-49ED-8B56-CAB6C4F40872,my_iOS_device_1,1456908544.000027,40.7992169028528,-96.68578751394216,366.582,0.25,92.8125,4,13.85706932542694,-9999,1456908544.435549,7.689350605010986,32.26004028320312,-17.0723876953125,203.1980285644531,199.9208984375,25,11277.88173329167,0.027099609375,1.001358032226562,0.1107177734375,11277.85065229167,-0.02541694312760724,0.03080185485174746,-0.006779342870905708,11277.85065229167,1.039764569794148,2.845425108380247,-1.453306428479677,-0.004110065288841724,0.001298614894039929,-0.0003543648635968566,-0.006135214120149612,0.02187813259661198,9.686299745226279e-05,XArbitraryCorrectedZVertical,0.4523017653324996,-0.5928585404292772,0.5155014062501396,-0.4221376129549373,0.03421138599514961,0.9931060075759888,0.1121162697672844,8.11592960357666,34.18843460083008,-15.13477230072021,1,11263.50103429167,walking,0,2016-03-02 02:48:50.072,2016-03-02 02:47:07.556,84,57.67838,2,2,2016-03-02 02:49:00.448,11276.67231929167,0,0.6198425,97.38368,192.168.1.101,100.78.239.175,2,1,0.35,0
2016-03-02 02:49:04.506,74,234B9614-18C8-49ED-8B56-CAB6C4F40872,my_iOS_device_1,1456908544.000027,40.7992169028528,-96.68578751394216,366.582,0.25,92.8125,4,13.85706932542694,-9999,1456908544.494378,7.446874618530273,32.29483032226562,-16.57647705078125,203.1117401123047,199.8346099853516,25,11277.91203529167,0.0332489013671875,1.003952026367188,0.1117706298828125,11277.88567029167,-0.02749633930674111,0.03610846963983935,-0.01000949095706282,11277.88567029167,1.044255253792916,2.850030682355977,-1.453726708803142,-0.006187648978084326,0.00660582585260272,-0.003587805898860097,-0.006475076545029879,0.008202857337892056,-0.001155094127170742,XArbitraryCorrectedZVertical,0.4523965644956401,-0.5926835430770352,0.5157403081833312,-0.4219899296347601,0.03357468545436859,0.9931551814079285,0.1118728667497635,8.105406761169434,34.19086456298828,-15.13491630554199,1,11263.50103429167,walking,0,2016-03-02 02:48:50.072,2016-03-02 02:47:07.556,84,57.67838,2,2,2016-03-02 02:49:00.448,11276.67231929167,0,0.6198425,97.38368,192.168.1.101,100.78.239.175,2,1,0.35,0
2016-03-02 02:49:04.520,75,234B9614-18C8-49ED-8B56-CAB6C4F40872,my_iOS_device_1,1456908544.000027,40.7992169028528,-96.68578751394216,366.582,0.25,92.8125,4,13.85706932542694,-9999,1456908544.494378,7.446874618530273,32.29483032226562,-16.57647705078125,203.1117401123047,199.8346099853516,25,11277.94233729167,0.04791259765625,1.003402709960938,0.1083831787109375,11277.92068629167,-0.03705069603350938,0.04141535074404025,-0.01121670187919574,11277.92068629167,1.04761676615152,2.853813687435981,-1.453618757969252,-0.01574120670557022,0.011913001537323,-0.004796179942786694,6.724109698552638e-05,0.01080946624279022,-0.0003312524640932679,XArbitraryCorrectedZVertical,0.4524298363370098,-0.5927547421742434,0.5158498500391858,-0.4217202758186458,0.03318165987730026,0.9931425452232361,0.1121018826961517,8.088373184204102,34.19320297241211,-15.13874626159668,1,11263.50103429167,walking,0,2016-03-02 02:48:50.072,2016-03-02 02:47:07.556,84,57.67838,2,2,2016-03-02 02:49:00.448,11276.67231929167,0,0.6198425,97.38368,192.168.1.101,100.78.239.175,2,1,0.35,0
2016-03-02 02:49:04.550,76,234B9614-18C8-49ED-8B56-CAB6C4F40872,my_iOS_device_1,1456908544.000027,40.7992169028528,-96.68578751394216,366.582,0.25,92.8125,4,13.85706932542694,-9999,1456908544.494378,7.446874618530273,32.29483032226562,-16.57647705078125,203.1117401123047,199.8346099853516,25,11277.97263729167,0.04449462890625,1.011764526367188,0.126190185546875,11277.95569729167,-0.05302353730347763,0.03715269510325942,-0.01038073561301986,11277.92068629167,1.04761676615152,2.853813687435981,-1.453618757969252,-0.01574120670557022,0.011913001537323,-0.004796179942786694,6.724109698552638e-05,0.01080946624279022,-0.0003312524640932679,XArbitraryCorrectedZVertical,0.4524298363370098,-0.5927547421742434,0.5158498500391858,-0.4217202758186458,0.03318165987730026,0.9931425452232361,0.1121018826961517,8.088373184204102,34.19320297241211,-15.13874626159668,1,11263.50103429167,walking,0,2016-03-02 02:48:50.072,2016-03-02 02:47:07.556,84,57.67838,2,2,2016-03-02 02:49:00.448,11276.67231929167,0,0.6198425,97.38368,192.168.1.101,100.78.239.175,2,1,0.35,0
2016-03-02 02:49:04.586,77,234B9614-18C8-49ED-8B56-CAB6C4F40872,my_iOS_device_1,1456908544.000027,40.7992169028528,-96.68578751394216,366.582,0.25,92.8125,4,13.85706932542694,-9999,1456908544.553187,7.446874618530273,32.22528076171875,-16.51031494140625,203.0286254882812,199.7514953613281,25,11278.00293829167,0.035614013671875,1.008529663085938,0.11834716796875,11277.99070729167,-0.04022598300121086,0.02332929114909413,-0.01338504763873825,11277.95569729167,1.04395321761039,2.850316376661786,-1.452894517795379,-0.0317123681306839,0.007649954408407211,-0.00395567249506712,0.0124998465180397,0.01650963164865971,5.783598317066208e-05,XArbitraryCorrectedZVertical,0.4523306192824722,-0.5930717154480216,0.5155819097842761,-0.4217087211550967,0.0337800607085228,0.9930576086044312,0.1126740947365761,8.086230278015137,34.19713592529297,-15.13100337982178,1,11263.50103429167,walking,0,2016-03-02 02:48:50.072,2016-03-02 02:47:07.556,84,57.67838,2,2,2016-03-02 02:49:00.448,11277.98396529167,0,0.6198425,97.38368,192.168.1.101,100.78.239.175,2,1,0.35,0
2016-03-02 02:49:04.609,78,234B9614-18C8-49ED-8B56-CAB6C4F40872,my_iOS_device_1,1456908544.000027,40.7992169028528,-96.68578751394216,366.582,0.25,92.8125,4,13.85706932542694,-9999,1456908544.553187,7.446874618530273,32.22528076171875,-16.51031494140625,203.0286254882812,199.7514953613281,25,11278.03323329167,0.035400390625,1.001937866210938,0.11138916015625,11278.02572429167,-0.04338768784735293,0.02332103534971488,-0.01556244814598704,11277.99070729167,1.044875326415589,2.851175905718787,-1.451693986628625,-0.01891724206507206,-0.006173512432724237,-0.006957180332392454,0.009356172755360603,0.01549189630895853,0.007385796867311001,XArbitraryCorrectedZVertical,0.4525229815240564,-0.5934185642407799,0.5151682365632181,-0.4215199246101269,0.03402456268668175,0.9929156899452209,0.1138452813029289,8.109596252441406,34.20215225219727,-15.10714626312256,1,11263.50103429167,walking,0,2016-03-02 02:48:50.072,2016-03-02 02:47:07.556,84,57.67838,2,2,2016-03-02 02:49:00.448,11277.98396529167,0,0.6198425,97.38368,192.168.1.101,100.78.239.175,2,1,0.35,0
2016-03-02 02:49:04.643,79,234B9614-18C8-49ED-8B56-CAB6C4F40872,my_iOS_device_1,1456908544.000027,40.7992169028528,-96.68578751394216,366.582,0.25,92.8125,4,13.85706932542694,-9999,1456908544.611651,7.273676872253418,32.60801696777344,-16.940185546875,202.9261322021484,199.6490020751953,25,11278.06353829167,0.0370025634765625,1.004638671875,0.131256103515625,11278.02572429167,-0.04338768784735293,0.02332103534971488,-0.01556244814598704,11278.02572429167,1.049941855077881,2.856013050124371,-1.450916139576767,-0.02207955531775951,-0.006181442644447088,-0.009135138243436813,-0.006667734123766422,0.0146080581471324,-0.0002933760697487742,XArbitraryCorrectedZVertical,0.4528723148187602,-0.5935330175156435,0.5149277424371218,-0.4212773951425299,0.03369104862213135,0.9928229451179504,0.114749550819397,8.109676361083984,34.23005676269531,-15.04377269744873,1,11263.50103429167,walking,0,2016-03-02 02:48:50.072,2016-03-02 02:47:07.556,84,57.67838,2,2,2016-03-02 02:49:00.448,11277.98396529167,0,0.6198425,97.38368,192.168.1.101,100.78.239.175,2,1,0.35,0
2016-03-02 02:49:04.669,80,234B9614-18C8-49ED-8B56-CAB6C4F40872,my_iOS_device_1,1456908544.000027,40.7992169028528,-96.68578751394216,366.582,0.25,92.8125,4,13.85706932542694,-9999,1456908544.611651,7.273676872253418,32.60801696777344,-16.940185546875,202.9261322021484,199.6490020751953,25,11278.09384129167,0.0280914306640625,1.004379272460938,0.11810302734375,11278.06073429167,-0.05823507724065369,0.02330106164153929,-0.01897528908292358,11278.06073429167,1.053227025720372,2.858775147531982,-1.449878419797028,-0.03692125529050827,-0.006231868639588356,-0.01254245638847351,0.008101841434836388,0.004722931887954473,0.01624862477183342,XArbitraryCorrectedZVertical,0.4532599514306452,-0.5936928019593739,0.5145046408317869,-0.4211522858696892,0.03366146609187126,0.9926983118057251,0.1158314496278763,8.097882270812988,34.23700332641602,-15.0343132019043,1,11263.50103429167,walking,0,2016-03-02 02:48:50.072,2016-03-02 02:47:07.556,84,57.67838,2,2,2016-03-02 02:49:00.448,11277.98396529167,0,0.6198425,97.38368,192.168.1.101,100.78.239.175,2,1,0.35,0
2016-03-02 02:49:04.700,81,234B9614-18C8-49ED-8B56-CAB6C4F40872,my_iOS_device_1,1456908544.000027,40.7992169028528,-96.68578751394216,366.582,0.25,92.8125,4,13.85706932542694,-9999,1456908544.671604,7.23903751373291,32.50361633300781,-16.77490234375,202.8282012939453,199.5510711669922,25,11278.12414529167,0.0213775634765625,1.006591796875,0.1273956298828125,11278.09574629167,-0.0476213150322519,0.03182211186535681,-0.0166940252931617,11278.09574629167,1.060734207398711,2.866210191503903,-1.448603977760749,-0.02630969323217869,0.002289621392264962,-0.01026187650859356,-0.00505188200622797,0.01183547358959913,0.0008071302436292171,XArbitraryCorrectedZVertical,0.4537304468772952,-0.5939500232536377,0.5141729098080627,-0.4206878537265328,0.0331433117389679,0.9925438165664673,0.1172958984971046,8.08564281463623,34.26670074462891,-14.97312259674072,1,11263.50103429167,walking,0,2016-03-02 02:48:50.072,2016-03-02 02:47:07.556,84,57.67838,2,2,2016-03-02 02:49:00.448,11277.98396529167,0,0.6198425,97.38368,192.168.1.101,100.78.239.175,2,1,0.35,0
2016-03-02 02:49:04.746,82,234B9614-18C8-49ED-8B56-CAB6C4F40872,my_iOS_device_1,1456908544.000027,40.7992169028528,-96.68578751394216,366.582,0.25,92.8125,4,13.85706932542694,-9999,1456908544.731407,7.585435390472412,32.15568542480469,-16.5103759765625,202.7551727294922,199.4780426025391,25,11278.15441929167,0.0323486328125,1.014007568359375,0.132720947265625,11278.13076229167,-0.05290396137053308,0.04031945995547264,-0.01890657952679953,11278.13076229167,1.07036169452631,2.876154892224857,-1.447592372632352,-0.0315941795706749,0.01078759878873825,-0.01247706171125174,-0.01086103823035955,0.01417180895805359,0.008807100355625153,XArbitraryCorrectedZVertical,0.4541583634001659,-0.594167018337751,0.5140601568616741,-0.4200570085127186,0.03223860263824463,0.9924200177192688,0.1185885295271873,8.073076248168945,34.27841567993164,-14.95306491851807,1,11263.50103429167,walking,0,2016-03-02 02:48:50.072,2016-03-02 02:47:07.556,84,57.67838,2,2,2016-03-02 02:49:00.448,11277.98396529167,0,0.6198425,97.38368,192.168.1.101,100.78.239.175,2,1,0.35,0
2016-03-02 02:49:04.762,83,234B9614-18C8-49ED-8B56-CAB6C4F40872,my_iOS_device_1,1456908544.000027,40.7992169028528,-96.68578751394216,366.582,0.25,92.8125,4,13.85706932542694,-9999,1456908544.731407,7.585435390472412,32.15568542480469,-16.5103759765625,202.7551727294922,199.4780426025391,25,11278.18472329167,0.0364227294921875,1.012496948242188,0.123443603515625,11278.16577429167,-0.0412824590056453,0.03289909421018486,-0.01340528766302285,11278.16577429167,1.078024025112625,2.883908836389218,-1.44631524130966,-0.01997580006718636,0.003367794211953878,-0.006977325771003962,0.000890652125235647,0.02160800993442535,0.01159238815307617,XArbitraryCorrectedZVertical,0.4546036152376873,-0.5944457713254365,0.5137775707220107,-0.4195263827092577,0.03164108470082283,0.9922622442245483,0.1200604438781738,8.042238235473633,34.31018447875977,-14.8967113494873,1,11263.50103429167,walking,0,2016-03-02 02:48:50.072,2016-03-02 02:47:07.556,84,57.67838,2,2,2016-03-02 02:49:00.448,11277.98396529167,0,0.6198425,97.38368,192.168.1.101,100.78.239.175,2,1,0.35,0
2016-03-02 02:49:04.791,84,234B9614-18C8-49ED-8B56-CAB6C4F40872,my_iOS_device_1,1456908544.000027,40.7992169028528,-96.68578751394216,366.582,0.25,92.8125,4,13.85706932542694,-9999,1456908544.779162,8.070390701293945,32.29483032226562,-16.5765380859375,202.7004089355469,199.4232788085938,25,11278.21502829167,0.0341339111328125,1.005752563476562,0.125946044921875,11278.20077429167,-0.02226668987415251,0.03506664102140036,-0.003538542140388284,11278.16577429167,1.078024025112625,2.883908836389218,-1.44631524130966,-0.01997580006718636,0.003367794211953878,-0.006977325771003962,0.000890652125235647,0.02160800993442535,0.01159238815307617,XArbitraryCorrectedZVertical,0.4546036152376873,-0.5944457713254365,0.5137775707220107,-0.4195263827092577,0.03164108470082283,0.9922622442245483,0.1200604438781738,8.042238235473633,34.31018447875977,-14.8967113494873,1,11263.50103429167,walking,0,2016-03-02 02:48:50.072,2016-03-02 02:47:07.556,84,57.67838,2,2,2016-03-02 02:49:00.448,11277.98396529167,0,0.6198425,97.38368,192.168.1.101,100.78.239.175,2,1,0.35,0
2016-03-02 02:49:04.834,85,234B9614-18C8-49ED-8B56-CAB6C4F40872,my_iOS_device_1,1456908544.000027,40.7992169028528,-96.68578751394216,366.582,0.25,92.8125,4,13.85706932542694,-9999,1456908544.821727,7.966472625732422,32.26004028320312,-16.940185546875,202.6744995117188,199.3973693847656,25,11278.24533429167,0.0296478271484375,1.004791259765625,0.112945556640625,11278.23580029167,-0.02010686623009825,0.03931598085673078,-0.005640841504896834,11278.20077429167,1.078121387784059,2.884114197121807,-1.445936358726579,-0.0009608475374989212,0.005535406991839409,0.00289027439430356,0.003154172329232097,0.0190763883292675,0.001716117956675589,XArbitraryCorrectedZVertical,0.4546279618969709,-0.59458276168218,0.5136746765959719,-0.4194318566773582,0.03171215951442719,0.992215096950531,0.1204304918646812,8.031416893005371,34.33547210693359,-14.84420108795166,1,11263.50103429167,walking,0,2016-03-02 02:48:50.072,2016-03-02 02:47:07.556,84,57.67838,2,2,2016-03-02 02:49:00.448,11277.98396529167,0,0.6198425,97.38368,192.168.1.101,100.78.239.175,2,1,0.35,0
2016-03-02 02:49:04.851,86,234B9614-18C8-49ED-8B56-CAB6C4F40872,my_iOS_device_1,1456908544.000027,40.7992169028528,-96.68578751394216,366.582,0.25,92.8125,4,13.85706932542694,-9999,1456908544.821727,7.966472625732422,32.26004028320312,-16.940185546875,202.6744995117188,199.3973693847656,25,11278.27563129167,0.0188446044921875,1.003631591796875,0.1272430419921875,11278.23580029167,-0.02010686623009825,0.03931598085673078,-0.005640841504896834,11278.23580029167,1.07630654972072,2.882500335491942,-1.445998275082538,0.001199184451252222,0.009784853085875511,0.0007886493112891912,-0.0003050444356631488,0.009806593880057335,-0.006748601328581572,XArbitraryCorrectedZVertical,0.4544950625699955,-0.5946378077149865,0.5137096020556364,-0.4194550756532147,0.03189073875546455,0.9922228455543518,0.1203197687864304,8.040460586547852,34.33621978759766,-14.83757781982422,1,11263.50103429167,walking,0,2016-03-02 02:48:50.072,2016-03-02 02:47:07.556,84,57.67838,2,2,2016-03-02 02:49:00.448,11277.98396529167,0,0.6198425,97.38368,192.168.1.101,100.78.239.175,2,1,0.35,0
2016-03-02 02:49:04.882,87,234B9614-18C8-49ED-8B56-CAB6C4F40872,my_iOS_device_1,1456908544.000027,40.7992169028528,-96.68578751394216,366.582,0.25,92.8125,4,13.85706932542694,-9999,1456908544.867411,7.723993301391602,31.80772399902344,-16.77490234375,202.61181640625,199.3346862792969,25,11278.30592929167,0.0298614501953125,1.010940551757812,0.1212615966796875,11278.27081129167,-0.02642228643911215,0.04993347149065869,-0.01000096884157456,11278.27081129167,1.079502143919066,2.886243362855164,-1.446130104788989,-0.005115286447107792,0.02040275186300278,-0.003573400434106588,-0.01041102223098278,0.01436783000826836,0.005100258160382509,XArbitraryCorrectedZVertical,0.4544668034063474,-0.594656025922037,0.5139351201320563,-0.4191835251188532,0.03140711411833763,0.992239236831665,0.1203117296099663,8.043380737304688,34.331787109375,-14.84623908996582,1,11263.50103429167,walking,0,2016-03-02 02:48:50.072,2016-03-02 02:47:07.556,84,57.67838,2,2,2016-03-02 02:49:00.448,11277.98396529167,0,0.6198425,97.38368,192.168.1.101,100.78.239.175,2,1,0.35,0
2016-03-02 02:49:04.925,88,234B9614-18C8-49ED-8B56-CAB6C4F40872,my_iOS_device_1,1456908544.000027,40.7992169028528,-96.68578751394216,366.582,0.25,92.8125,4,13.85706932542694,-9999,1456908544.867411,7.723993301391602,31.80772399902344,-16.77490234375,202.61181640625,199.3346862792969,25,11278.33621229167,0.0291900634765625,1.003067016601562,0.1190643310546875,11278.34083929167,-0.02217587608098081,0.05844679854731499,-0.008877913809888149,11278.30582229167,1.083241906642608,2.890808398037795,-1.446106094433462,-0.003059810493141413,0.02254639007151127,0.00178143719676882,-0.004297923762351274,0.01830758340656757,-0.001549926353618503,XArbitraryCorrectedZVertical,0.4544085822809734,-0.5947699593204762,0.5141807611146569,-0.4187835726707297,0.03086347505450249,0.9922362565994263,0.1204769313335419,8.035823822021484,34.34142684936523,-14.82803344726562,1,11263.50103429167,walking,0,2016-03-02 02:48:50.072,2016-03-02 02:47:07.556,84,57.67838,2,2,2016-03-02 02:49:00.448,11277.98396529167,0,0.6198425,97.38368,192.168.1.101,100.78.239.175,2,1,0.35,0
2016-03-02 02:49:04.942,89,234B9614-18C8-49ED-8B56-CAB6C4F40872,my_iOS_device_1,1456908544.000027,40.7992169028528,-96.68578751394216,366.582,0.25,92.8125,4,13.85706932542694,-9999,1456908544.925661,7.585435390472412,31.52937316894531,-17.0394287109375,202.5545043945312,199.2773742675781,25,11278.36652729167,0.0329742431640625,1.009552001953125,0.120361328125,11278.34083929167,-0.02217587608098081,0.05844679854731499,-0.008877913809888149,11278.34083929167,1.084321973070319,2.892778055950054,-1.446052810749757,-0.0008693610434420407,0.02891696058213711,-0.002453403547406197,-0.001449073548428714,0.01083740498870611,-0.001524395775049925,XArbitraryCorrectedZVertical,0.4542302360640577,-0.5949531544848632,0.5143840030066335,-0.4184671242338713,0.03063913621008396,0.9922296404838562,0.1205887272953987,8.045823097229004,34.34387969970703,-14.81691551208496,1,11278.35942229167,stationary,1,2016-03-02 02:49:04.938,2016-03-02 02:47:07.556,84,57.67838,2,2,2016-03-02 02:49:00.448,11277.98396529167,0,0.6198425,97.38368,192.168.1.101,100.78.239.175,2,1,0.35,0
2016-03-02 02:49:04.984,90,234B9614-18C8-49ED-8B56-CAB6C4F40872,my_iOS_device_1,1456908544.000027,40.7992169028528,-96.68578751394216,366.582,0.25,92.8125,4,13.85706932542694,-9999,1456908544.925661,7.585435390472412,31.52937316894531,-17.0394287109375,202.5545043945312,199.2773742675781,25,11278.39682629167,0.0367889404296875,1.009796142578125,0.1233062744140625,11278.37584929167,-0.01483167674286929,0.0403921642532318,-0.002367550209080443,11278.34083929167,1.084321973070319,2.892778055950054,-1.446052810749757,-0.0008693610434420407,0.02891696058213711,-0.002453403547406197,-0.001449073548428714,0.01083740498870611,-0.001524395775049925,XArbitraryCorrectedZVertical,0.4542302360640577,-0.5949531544848632,0.5143840030066335,-0.4184671242338713,0.03063913621008396,0.9922296404838562,0.1205887272953987,8.045823097229004,34.34387969970703,-14.81691551208496,1,11278.35942229167,stationary,1,2016-03-02 02:49:04.938,2016-03-02 02:47:07.556,84,57.67838,2,2,2016-03-02 02:49:00.448,11277.98396529167,0,0.6198425,97.38368,192.168.1.101,100.78.239.175,2,1,0.35,0
2016-03-02 02:49:05.003,91,234B9614-18C8-49ED-8B56-CAB6C4F40872,my_iOS_device_1,1456908544.000027,40.7992169028528,-96.68578751394216,366.582,0.25,92.8125,4,13.85706932542694,-9999,1456908544.985533,7.654714107513428,31.80772399902344,-17.0394287109375,202.4887542724609,199.2116241455078,25,11278.42712729167,0.0338897705078125,1.004714965820312,0.12078857421875,11278.41086029167,-0.003163835375014135,0.03615321074615268,-6.444849837991757e-05,11278.37584929167,1.083577257034453,2.892716625676,-1.446300028298591,0.006475821603089571,0.01086251623928547,0.004056649282574654,0.002388119464740157,0.01729166135191917,1.222639002662618e-05,XArbitraryCorrectedZVertical,0.4539924768191888,-0.5950339333678063,0.514609867802144,-0.418332562793131,0.0305861234664917,0.9922603368759155,0.1203491017222404,8.048742294311523,34.34284973144531,-14.81772136688232,1,11278.35942229167,stationary,1,2016-03-02 02:49:04.938,2016-03-02 02:47:07.556,84,57.67838,2,2,2016-03-02 02:49:00.448,11277.98396529167,0,0.6198425,97.38368,192.168.1.101,100.78.239.175,2,1,0.35,0
2016-03-02 02:49:05.033,92,234B9614-18C8-49ED-8B56-CAB6C4F40872,my_iOS_device_1,1456908544.000027,40.7992169028528,-96.68578751394216,366.582,0.25,92.8125,4,13.85706932542694,-9999,1456908544.985533,7.654714107513428,31.80772399902344,-17.0394287109375,202.4887542724609,199.2116241455078,25,11278.45742629167,0.02972412109375,1.006149291992188,0.1198883056640625,11278.41086029167,-0.003163835375014135,0.03615321074615268,-6.444849837991757e-05,11278.41086029167,1.078298145673943,2.887706391911665,-1.446557234220827,0.01814308203756809,0.006623489316552877,0.006362051237374544,0.009128074161708355,0.013170400634408,0.004121903795748949,XArbitraryCorrectedZVertical,0.4536779010054145,-0.5951050472670705,0.5146649044862303,-0.4185049353911522,0.03112461231648922,0.9922922253608704,0.1199473068118095,8.057551383972168,34.33946228027344,-14.82079219818115,1,11278.35942229167,stationary,1,2016-03-02 02:49:04.938,2016-03-02 02:47:07.556,84,57.67838,2,2,2016-03-02 02:49:00.448,11277.98396529167,0,0.6198425,97.38368,192.168.1.101,100.78.239.175,2,1,0.35,0
2016-03-02 02:49:05.077,93,234B9614-18C8-49ED-8B56-CAB6C4F40872,my_iOS_device_1,1456908544.000027,40.7992169028528,-96.68578751394216,366.582,0.25,92.8125,4,13.85706932542694,-9999,1456908545.045879,7.308316707611084,32.29483032226562,-17.5023193359375,202.4075927734375,199.1304626464844,25,11278.48772629167,0.0263519287109375,1.004348754882812,0.113525390625,11278.48088829167,0.002129197291518351,0.04148006555852918,0.002141181516423707,11278.44587729167,1.074002188186421,2.883522677167702,-1.44722372031876,0.02452652528882027,0.008755196817219257,0.006454084068536758,-0.001946871867403388,0.01534633059054613,0.003809269983321428,XArbitraryCorrectedZVertical,0.4533917810215612,-0.5949993091089079,0.5148425312250826,-0.4187468007086891,0.03145736828446388,0.99237459897995,0.1191765666007996,8.081942558288574,34.32706832885742,-14.83621025085449,1,11278.35942229167,stationary,1,2016-03-02 02:49:04.938,2016-03-02 02:47:07.556,84,57.67838,2,2,2016-03-02 02:49:00.448,11277.98396529167,0,0.6198425,97.38368,192.168.1.101,100.78.239.175,2,1,0.35,0
2016-03-02 02:49:05.094,94,234B9614-18C8-49ED-8B56-CAB6C4F40872,my_iOS_device_1,1456908545.000027,40.79921204134896,-96.6857839097238,366.2137,0.18,110.0390625,4,14.4608322529923,-9999,1456908545.045879,7.308316707611084,32.29483032226562,-17.5023193359375,202.4075927734375,199.1304626464844,25,11278.51800829167,0.034820556640625,1.006134033203125,0.1202239990234375,11278.48088829167,0.002129197291518351,0.04148006555852918,0.002141181516423707,11278.48088829167,1.072744733665869,2.882589110183235,-1.44822502480793,0.02343678660690784,0.01195093430578709,0.008566051721572876,-0.006930558942258358,0.01200380455702543,-0.004264445509761572,XArbitraryCorrectedZVertical,0.4531316098967327,-0.5947814947748997,0.51523580866844,-0.4188541262199811,0.03131410479545593,0.9924975633621216,0.1181865632534027,8.096205711364746,34.30282211303711,-14.88442420959473,1,11278.35942229167,stationary,1,2016-03-02 02:49:04.938,2016-03-02 02:47:07.556,84,57.67838,2,2,2016-03-02 02:49:00.448,11277.98396529167,0,0.6198425,97.38368,192.168.1.101,100.78.239.175,2,1,0.35,0
2016-03-02 02:49:05.145,95,234B9614-18C8-49ED-8B56-CAB6C4F40872,my_iOS_device_1,1456908545.000027,40.79921204134896,-96.6857839097238,366.2137,0.18,110.0390625,4,14.4608322529923,-9999,1456908545.105645,7.516153335571289,32.57315063476562,-17.5023193359375,202.32373046875,199.0466003417969,25,11278.54830729167,0.043487548828125,1.007843017578125,0.11993408203125,11278.51589929167,-0.008472314375869081,0.02976588518770664,-0.001204015128824824,11278.51589929167,1.069491974287462,2.879522804659459,-1.449062265343781,0.01283650193363428,0.0002369764115428552,0.005220219492912292,0.001299564377404749,0.01461785193532705,0.0005867827567271888,XArbitraryCorrectedZVertical,0.4528492118003344,-0.5946185943459419,0.5155084153058653,-0.4190553571769505,0.03146105632185936,0.9925995469093323,0.1172873601317406,8.09791374206543,34.29336547851562,-14.90528583526611,1,11278.35942229167,stationary,1,2016-03-02 02:49:04.938,2016-03-02 02:47:07.556,84,57.67838,2,2,2016-03-02 02:49:00.448,11277.98396529167,0,0.6198425,97.38368,192.168.1.101,100.78.239.175,2,1,0.35,0
2016-03-02 02:49:05.155,96,234B9614-18C8-49ED-8B56-CAB6C4F40872,my_iOS_device_1,1456908545.000027,40.79921204134896,-96.6857839097238,366.2137,0.18,110.0390625,4,14.4608322529923,-9999,1456908545.105645,7.516153335571289,32.57315063476562,-17.5023193359375,202.32373046875,199.0466003417969,25,11278.57862229167,0.0400390625,1.009780883789062,0.1194610595703125,11278.55091429167,-0.002092711984584265,0.02658047820786286,-0.001109739226236019,11278.51589929167,1.069491974287462,2.879522804659459,-1.449062265343781,0.01283650193363428,0.0002369764115428552,0.005220219492912292,0.001299564377404749,0.01461785193532705,0.0005867827567271888,XArbitraryCorrectedZVertical,0.4528492118003344,-0.5946185943459419,0.5155084153058653,-0.4190553571769505,0.03146105632185936,0.9925995469093323,0.1172873601317406,8.09791374206543,34.29336547851562,-14.90528583526611,1,11278.35942229167,stationary,1,2016-03-02 02:49:04.938,2016-03-02 02:47:07.556,84,57.67838,2,2,2016-03-02 02:49:00.448,11277.98396529167,0,0.6198425,97.38368,192.168.1.101,100.78.239.175,2,1,0.35,0
2016-03-02 02:49:05.185,97,234B9614-18C8-49ED-8B56-CAB6C4F40872,my_iOS_device_1,1456908545.000027,40.79921204134896,-96.6857839097238,366.2137,0.18,110.0390625,4,14.4608322529923,-9999,1456908545.166269,7.550792694091797,31.84248352050781,-17.535400390625,202.2483673095703,198.9712371826172,25,11278.60892329167,0.0275421142578125,1.002822875976562,0.11273193359375,11278.58590029167,0.007481085818141588,0.02765106896607471,-0.0009712548495518982,11278.55091429167,1.063827345571296,2.873753284460743,-1.449325955587929,0.01921561919152737,-0.002948520705103874,0.005317051894962788,0.01141959894448519,0.01521147601306438,0.003082596231251955,XArbitraryCorrectedZVertical,0.4526193410935659,-0.5946103556197946,0.5154798346188063,-0.4193504467138315,0.03206795081496239,0.9926315546035767,0.1168514862656593,8.109004974365234,34.28029251098633,-14.92930221557617,1,11278.35942229167,stationary,1,2016-03-02 02:49:04.938,2016-03-02 02:47:07.556,84,57.67838,2,2,2016-03-02 02:49:00.448,11277.98396529167,0,0.6198425,97.38368,192.168.1.101,100.78.239.175,2,1,0.35,0
2016-03-02 02:49:05.226,98,234B9614-18C8-49ED-8B56-CAB6C4F40872,my_iOS_device_1,1456908545.000027,40.79921204134896,-96.6857839097238,366.2137,0.18,110.0390625,4,14.4608322529923,-9999,1456908545.223201,7.758632659912109,32.05123901367188,-17.2708740234375,202.1907348632812,198.9136047363281,25,11278.63922229167,0.0366973876953125,1.001983642578125,0.11688232421875,11278.62092329167,-0.01482581778847112,0.02869183232007768,-0.003427222006822972,11278.62092329167,1.054764919379786,2.864498032878374,-1.450816781852215,0.006484169512987137,-0.0008370818686671555,0.003001390490680933,-0.004056662321090698,0.009279369376599789,-0.006254707928746939,XArbitraryCorrectedZVertical,0.4521299715450658,-0.5942571604762612,0.5157989622308239,-0.4199861266934283,0.0327431857585907,0.9928110837936401,0.1151261702179909,8.136852264404297,34.2591552734375,-14.9626350402832,1,11278.35942229167,stationary,1,2016-03-02 02:49:04.938,2016-03-02 02:47:07.556,84,57.67838,2,2,2016-03-02 02:49:00.448,11277.98396529167,0,0.6198425,97.38368,192.168.1.101,100.78.239.175,2,1,0.35,0
2016-03-02 02:49:05.245,99,234B9614-18C8-49ED-8B56-CAB6C4F40872,my_iOS_device_1,1456908545.000027,40.79921204134896,-96.6857839097238,366.2137,0.18,110.0390625,4,14.4608322529923,-9999,1456908545.223201,7.758632659912109,32.05123901367188,-17.2708740234375,202.1907348632812,198.9136047363281,25,11278.66952029167,0.03125,1.011611938476562,0.1173095703125,11278.65595129167,-0.03067775154494977,0.04886687547408196,-0.01006222154664639,11278.62092329167,1.054764919379786,2.864498032878374,-1.450816781852215,0.006484169512987137,-0.0008370818686671555,0.003001390490680933,-0.004056662321090698,0.009279369376599789,-0.006254707928746939,XArbitraryCorrectedZVertical,0.4521299715450658,-0.5942571604762612,0.5157989622308239,-0.4199861266934283,0.0327431857585907,0.9928110837936401,0.1151261702179909,8.136852264404297,34.2591552734375,-14.9626350402832,1,11278.35942229167,stationary,1,2016-03-02 02:49:04.938,2016-03-02 02:47:07.556,84,57.67838,2,2,2016-03-02 02:49:00.448,11277.98396529167,0,0.6198425,97.38368,192.168.1.101,100.78.239.175,2,1,0.35,0
2016-03-02 02:49:05.275,100,234B9614-18C8-49ED-8B56-CAB6C4F40872,my_iOS_device_1,1456908545.000027,40.79921204134896,-96.6857839097238,366.2137,0.18,110.0390625,4,14.4608322529923,-9999,1456908545.223201,7.758632659912109,32.05123901367188,-17.2708740234375,202.1907348632812,198.9136047363281,25,11278.69981929167,0.034881591796875,1.010543823242188,0.1083984375,11278.65595129167,-0.03067775154494977,0.04886687547408196,-0.01006222154664639,11278.65595129167,1.054254485636675,2.864266713683875,-1.450696143939957,-0.009368080645799637,0.01933808624744415,-0.003633136162534356,-0.0002403512335149571,0.01205565687268972,0.01062070764601231,XArbitraryCorrectedZVertical,0.4520525046301739,-0.5943613590660476,0.5158124389296109,-0.4199055081232288,0.03280260786414146,0.9927966594696045,0.1152337864041328,8.142014503479004,34.23933792114258,-15.00513172149658,1,11278.35942229167,stationary,1,2016-03-02 02:49:04.938,2016-03-02 02:47:07.556,84,57.67838,2,2,2016-03-02 02:49:00.448,11277.98396529167,0,0.6198425,97.38368,192.168.1.101,100.78.239.175,2,1,0.35,0
2016-03-02 02:49:05.306,101,234B9614-18C8-49ED-8B56-CAB6C4F40872,my_iOS_device_1,1456908545.000027,40.79921204134896,-96.6857839097238,366.2137,0.18,110.0390625,4,14.4608322529923,-9999,1456908545.279323,8.208949089050293,31.94685363769531,-17.7667236328125,202.1425018310547,198.8653717041016,25,11278.73011529167,0.0323333740234375,1.002365112304688,0.1237945556640625,11278.69095129167,-0.005162804089227611,0.0510157801576669,-0.008627044035202685,11278.69095129167,1.056086003540027,2.866816837467118,-1.45087422509488,0.01614678092300892,0.02148727513849735,-0.002198409056290984,0.003336450317874551,0.01668826676905155,-0.003437297651544213,XArbitraryCorrectedZVertical,0.4519174358351873,-0.5944275206854317,0.5160654431226387,-0.4196462942223443,0.03246066719293594,0.9928179383277893,0.1151468902826309,8.146539688110352,34.24359893798828,-14.99294090270996,1,11278.35942229167,stationary,1,2016-03-02 02:49:04.938,2016-03-02 02:47:07.556,84,57.67838,2,2,2016-03-02 02:49:00.448,11277.98396529167,0,0.6198425,97.38368,192.168.1.101,100.78.239.175,2,1,0.35,0
2016-03-02 02:49:05.336,102,234B9614-18C8-49ED-8B56-CAB6C4F40872,my_iOS_device_1,1456908545.000027,40.79921204134896,-96.6857839097238,366.2137,0.18,110.0390625,4,14.4608322529923,-9999,1456908545.279323,8.208949089050293,31.94685363769531,-17.7667236328125,202.1425018310547,198.8653717041016,25,11278.76041429167,0.0375823974609375,1.002487182617188,0.1154327392578125,11278.72595529167,-0.01045849991685018,0.06164285817151909,-0.009775132781135844,11278.72595529167,1.055100772781692,2.866769148907531,-1.451385422876269,0.01085112988948822,0.03211447969079018,-0.0033461709972471,0.0004474540764931589,0.01153080444782972,0.008924083784222603,XArbitraryCorrectedZVertical,0.4515749216673673,-0.5944817192113174,0.5164366962523462,-0.419481482795869,0.03232842311263084,0.9928789734840393,0.11465685069561,8.149755477905273,34.24296188354492,-14.99265003204346,1,11278.35942229167,stationary,1,2016-03-02 02:49:04.938,2016-03-02 02:47:07.556,84,57.67838,2,2,2016-03-02 02:49:00.448,11277.98396529167,0,0.6198425,97.38368,192.168.1.101,100.78.239.175,2,1,0.35,0
2016-03-02 02:49:05.385,103,234B9614-18C8-49ED-8B56-CAB6C4F40872,my_iOS_device_1,1456908545.000027,40.79921204134896,-96.6857839097238,366.2137,0.18,110.0390625,4,14.4608322529923,-9999,1456908545.373103,8.208949089050293,31.80767822265625,-17.634521484375,202.0768280029297,198.7996978759766,25,11278.79071029167,0.037078857421875,1.011611938476562,0.123046875,11278.76099129167,-0.02008662620581365,0.04675685294241218,-0.006710100682563649,11278.76099129167,1.054081966813328,2.866567529946515,-1.4513517487778,0.001221514539793134,0.01722864061594009,-0.0002801936061587185,0.00522177666425705,0.009612209163606167,0.0007502331864088774,XArbitraryCorrectedZVertical,0.4513281882269535,-0.5946798462637886,0.5165932658346047,-0.4192733531406235,0.03236062079668045,0.9928749799728394,0.1146825030446053,8.16502571105957,34.23701477050781,-14.99792575836182,1,11278.35942229167,stationary,1,2016-03-02 02:49:04.938,2016-03-02 02:47:07.556,84,57.67838,2,2,2016-03-02 02:49:00.448,11277.98396529167,0,0.6198425,97.38368,192.168.1.101,100.78.239.175,2,1,0.35,0
2016-03-02 02:49:05.397,104,234B9614-18C8-49ED-8B56-CAB6C4F40872,my_iOS_device_1,1456908545.000027,40.79921204134896,-96.6857839097238,366.2137,0.18,110.0390625,4,14.4608322529923,-9999,1456908545.373103,8.208949089050293,31.80767822265625,-17.634521484375,202.0768280029297,198.7996978759766,25,11278.82100929167,0.034942626953125,1.008621215820312,0.108734130859375,11278.79600229167,-0.02543744946800085,0.04250511626210067,-0.004654140321022477,11278.79600229167,1.053400602446925,2.866414645307155,-1.450984475698427,-0.004130608402192593,0.01297698169946671,0.001776925288140774,0.004601622000336647,0.0187807958573103,0.008018388412892818,XArbitraryCorrectedZVertical,0.4512094518222718,-0.5949153500538806,0.5165755475524605,-0.4190888456251022,0.0324772335588932,0.9928311705589294,0.1150284856557846,8.174264907836914,34.2361946105957,-14.9947624206543,1,11278.35942229167,stationary,1,2016-03-02 02:49:04.938,2016-03-02 02:47:07.556,84,57.67838,2,2,2016-03-02 02:49:00.448,11277.98396529167,0,0.6198425,97.38368,192.168.1.101,100.78.239.175,2,1,0.35,0
2016-03-02 02:49:05.427,105,234B9614-18C8-49ED-8B56-CAB6C4F40872,my_iOS_device_1,1456908545.000027,40.79921204134896,-96.6857839097238,366.2137,0.18,110.0390625,4,14.4608322529923,-9999,1456908545.373103,8.208949089050293,31.80767822265625,-17.634521484375,202.0768280029297,198.7996978759766,25,11278.85129129167,0.0374755859375,1.002822875976562,0.11712646484375,11278.83101329167,-0.01266279835110876,0.03719477304848267,-0.005531651900203586,11278.83101329167,1.050129050102072,2.863480720951332,-1.451253943026533,0.00864506047219038,0.007666601799428463,0.0009006438194774091,0.002201497554779053,0.01575790159404278,-0.005941315088421106,XArbitraryCorrectedZVertical,0.4509617239226105,-0.5949548272358939,0.5166919461347583,-0.4191559493850975,0.03274112939834595,0.9928632974624634,0.11467544734478,8.192105293273926,34.23886489868164,-14.97892189025879,1,11278.35942229167,stationary,1,2016-03-02 02:49:04.938,2016-03-02 02:47:07.556,84,57.67838,2,2,2016-03-02 02:49:00.448,11277.98396529167,0,0.6198425,97.38368,192.168.1.101,100.78.239.175,2,1,0.35,0
2016-03-02 02:49:05.465,106,234B9614-18C8-49ED-8B56-CAB6C4F40872,my_iOS_device_1,1456908545.000027,40.79921204134896,-96.6857839097238,366.2137,0.18,110.0390625,4,14.4608322529923,-9999,1456908545.428027,8.00111198425293,31.73809814453125,-17.8328857421875,202.0438690185547,198.7667388916016,25,11278.88159729167,0.033782958984375,1.003677368164062,0.11651611328125,11278.86600629167,-0.03278697512829253,0.03397181549726878,-0.01221671886852049,11278.83101329167,1.050129050102072,2.863480720951332,-1.451253943026533,0.00864506047219038,0.007666601799428463,0.0009006438194774091,0.002201497554779053,0.01575790159404278,-0.005941315088421106,XArbitraryCorrectedZVertical,0.4509617239226105,-0.5949548272358939,0.5166919461347583,-0.4191559493850975,0.03274112939834595,0.9928632974624634,0.11467544734478,8.192105293273926,34.23886489868164,-14.97892189025879,1,11278.35942229167,stationary,1,2016-03-02 02:49:04.938,2016-03-02 02:47:07.556,84,57.67838,2,2,2016-03-02 02:49:00.448,11277.98396529167,0,0.6198425,97.38368,192.168.1.101,100.78.239.175,2,1,0.35,0
2016-03-02 02:49:05.487,107,234B9614-18C8-49ED-8B56-CAB6C4F40872,my_iOS_device_1,1456908545.000027,40.79921204134896,-96.6857839097238,366.2137,0.18,110.0390625,4,14.4608322529923,-9999,1456908545.485244,8.17430591583252,31.42495727539062,-17.53533935546875,202.0115966796875,198.7344665527344,25,11278.91189629167,0.0346832275390625,1.005996704101562,0.1231689453125,11278.90104029167,-0.03918442069888087,0.03290655106123708,-0.01124333349009653,11278.86600629167,1.050332793554251,2.863862994297762,-1.451115278921969,-0.01147977635264397,0.0044437893666327,-0.005783314350992441,0.005259349010884762,0.009457309730350971,0.00338948774151504,XArbitraryCorrectedZVertical,0.4509402038509034,-0.5950320228096415,0.516687801921746,-0.4190746231009918,0.03273503482341766,0.9928467869758606,0.1148203536868095,8.209377288818359,34.2308464050293,-14.98778343200684,1,11278.35942229167,stationary,1,2016-03-02 02:49:04.938,2016-03-02 02:47:07.556,84,57.67838,2,2,2016-03-02 02:49:00.448,11277.98396529167,0,0.6198425,97.38368,192.168.1.101,100.78.239.175,2,1,0.35,0
2016-03-02 02:49:05.517,108,234B9614-18C8-49ED-8B56-CAB6C4F40872,my_iOS_device_1,1456908545.000027,40.79921204134896,-96.6857839097238,366.2137,0.18,110.0390625,4,14.4608322529923,-9999,1456908545.485244,8.17430591583252,31.42495727539062,-17.53533935546875,202.0115966796875,198.7344665527344,25,11278.94219929167,0.036834716796875,1.005096435546875,0.1141204833984375,11278.93605029167,-0.03716121721874768,0.03080185485174746,-0.003752660292030655,11278.90104029167,1.052653484877985,2.866226888606204,-1.450607757379945,-0.01787767373025417,0.003378669731318951,-0.004809579346328974,0.0002058716636383906,0.01076925359666348,0.003849872620776296,XArbitraryCorrectedZVertical,0.4510811498478774,-0.5951612796713394,0.5165604004966043,-0.4188964073260474,0.0326005257666111,0.9927860498428345,0.1153823062777519,8.210208892822266,34.23480987548828,-14.97827816009521,1,11278.35942229167,stationary,1,2016-03-02 02:49:04.938,2016-03-02 02:47:07.556,84,57.67838,2,2,2016-03-02 02:49:00.448,11277.98396529167,0,0.6198425,97.38368,192.168.1.101,100.78.239.175,2,1,0.35,0
2016-03-02 02:49:05.548,109,234B9614-18C8-49ED-8B56-CAB6C4F40872,my_iOS_device_1,1456908545.000027,40.79921204134896,-96.6857839097238,366.2137,0.18,110.0390625,4,14.4608322529923,-9999,1456908545.544116,7.689350605010986,31.14659118652344,-17.6676025390625,201.9660797119141,198.6889495849609,25,11278.97249629167,0.033447265625,1.001602172851562,0.126983642578125,11278.93605029167,-0.03716121721874768,0.03080185485174746,-0.003752660292030655,11278.93605029167,1.052902542562335,2.866442807111087,-1.449791715903049,-0.01585588790476322,0.001274103531613946,0.002682365942746401,0.005198672879487276,0.01626903936266899,-0.000827796699013561,XArbitraryCorrectedZVertical,0.4511979725781315,-0.5954031249061391,0.5162767557942216,-0.4187765750611807,0.03279571235179901,0.9926878809928894,0.1161689832806587,8.206354141235352,34.24955749511719,-14.94663906097412,1,11278.35942229167,stationary,1,2016-03-02 02:49:04.938,2016-03-02 02:47:07.556,84,57.67838,2,2,2016-03-02 02:49:00.448,11277.98396529167,0,0.6198425,97.38368,192.168.1.101,100.78.239.175,2,1,0.35,0
2016-03-02 02:49:05.577,110,234B9614-18C8-49ED-8B56-CAB6C4F40872,my_iOS_device_1,1456908545.000027,40.79921204134896,-96.6857839097238,366.2137,0.18,110.0390625,4,14.4608322529923,-9999,1456908545.544116,7.689350605010986,31.14659118652344,-17.6676025390625,201.9660797119141,198.6889495849609,25,11279.00278929167,0.03582763671875,1.0126953125,0.1233978271484375,11278.97106729167,-0.04446040913443685,0.03076696744146742,-0.0145160921536949,11278.97106729167,1.054251902274267,2.867805936878862,-1.449068790709495,-0.02315598726272583,0.001239337841980159,-0.008080333471298218,0.002202825620770454,0.007689569611102343,0.01024702936410904,XArbitraryCorrectedZVertical,0.4513352845810675,-0.5956078329281668,0.5160536233989254,-0.4186125034247914,0.0328313522040844,0.9926003217697144,0.1169044598937035,8.212993621826172,34.25265884399414,-14.93588256835938,1,11278.35942229167,stationary,1,2016-03-02 02:49:04.938,2016-03-02 02:47:07.556,84,57.67838,2,2,2016-03-02 02:49:00.448,11277.98396529167,0,0.6198425,97.38368,192.168.1.101,100.78.239.175,2,1,0.35,0
2016-03-02 02:49:05.627,111,234B9614-18C8-49ED-8B56-CAB6C4F40872,my_iOS_device_1,1456908545.000027,40.79921204134896,-96.6857839097238,366.2137,0.18,110.0390625,4,14.4608322529923,-9999,1456908545.602911,7.966466426849365,31.49455261230469,-17.6014404296875,201.9246978759766,198.6475677490234,25,11279.03309029167,0.0386199951171875,1.004547119140625,0.130584716796875,11279.00606129167,-0.03177923497180654,0.01803039952816347,-0.008996690794505682,11279.00606129167,1.057056864769911,2.870287293522372,-1.448136904051587,-0.01047710422426462,-0.01149692945182323,-0.002560616936534643,0.003038591705262661,0.02020855247974396,0.005521155428141356,XArbitraryCorrectedZVertical,0.4516437951775199,-0.5957820222428108,0.5157069781094543,-0.4184590505403361,0.03278904408216476,0.9924867749214172,0.1178766712546349,8.208744049072266,34.27626037597656,-14.88398551940918,1,11278.35942229167,stationary,1,2016-03-02 02:49:04.938,2016-03-02 02:47:07.556,84,57.67838,2,2,2016-03-02 02:49:00.448,11277.98396529167,0,0.6198425,97.38368,192.168.1.101,100.78.239.175,2,1,0.35,0
2016-03-02 02:49:05.639,112,234B9614-18C8-49ED-8B56-CAB6C4F40872,my_iOS_device_1,1456908545.000027,40.79921204134896,-96.6857839097238,366.2137,0.18,110.0390625,4,14.4608322529923,-9999,1456908545.602911,7.966466426849365,31.49455261230469,-17.6014404296875,201.9246978759766,198.6475677490234,25,11279.06338929167,0.0284271240234375,1.005355834960938,0.11279296875,11279.04109029167,-0.02648593598916505,0.004213120844505354,-0.007847004151918476,11279.04109029167,1.056499531575754,2.868961715171074,-1.44740540063647,-0.005179752130061388,-0.02534712292253971,-0.001405485905706882,0.005479243583977222,0.01215012557804585,0.01205245219171047,XArbitraryCorrectedZVertical,0.451908333281719,-0.5958565185884377,0.5152731431972543,-0.4186017862668751,0.03314075246453285,0.9923970103263855,0.1185322627425194,8.208744049072266,34.27626037597656,-14.88398551940918,1,11278.35942229167,stationary,1,2016-03-02 02:49:04.938,2016-03-02 02:47:07.556,84,57.67838,2,2,2016-03-02 02:49:00.448,11277.98396529167,0,0.6198425,97.38368,192.168.1.101,100.78.239.175,2,1,0.35,0
