loggingTime,loggingSample,identifierForVendor,deviceID,locationTimestamp_since1970,locationLatitude,locationLongitude,locationAltitude,locationSpeed,locationCourse,locationVerticalAccuracy,locationHorizontalAccuracy,locationFloor,locationHeadingTimestamp_since1970,locationHeadingX,locationHeadingY,locationHeadingZ,locationTrueHeading,locationMagneticHeading,locationHeadingAccuracy,accelerometerTimestamp_sinceReboot,accelerometerAccelerationX,accelerometerAccelerationY,accelerometerAccelerationZ,gyroTimestamp_sinceReboot,gyroRotationX,gyroRotationY,gyroRotationZ,motionTimestamp_sinceReboot,motionYaw,motionRoll,motionPitch,motionRotationRateX,motionRotationRateY,motionRotationRateZ,motionUserAccelerationX,motionUserAccelerationY,motionUserAccelerationZ,motionAttitudeReferenceFrame,motionQuaternionX,motionQuaternionY,motionQuaternionZ,motionQuaternionW,motionGravityX,motionGravityY,motionGravityZ,motionMagneticFieldX,motionMagneticFieldY,motionMagneticFieldZ,motionMagneticFieldCalibrationAccuracy,activityTimestamp_sinceReboot,activity,activityActivityConfidence,activityActivityStartDate,pedometerStartDate,pedometerNumberofSteps,pedometerDistance,pedometerFloorAscended,pedometerFloorDescended,pedometerEndDate,altimeterTimestamp_sinceReboot,altimeterReset,altimeterRelativeAltitude,altimeterPressure,IP_en0,IP_pdp_ip0,deviceOrientation,batteryState,batteryLevel,state
2016-03-02 02:48:29.952,1,234B9614-18C8-49ED-8B56-CAB6C4F40872,my_iOS_device_1,1456908509.000026,40.79919322397634,-96.6857334506667,366.0173,0.21,300.9375,4,10,-9999,1456908509.900738,9.077458381652832,42.2060546875,-5.8853759765625,201.6762847900391,198.3991546630859,25,11243.34320125,0.0676727294921875,1.024978637695312,0.0536346435546875,11243.32856825,-0.06577608418332206,0.2083739794871788,-0.002127599394864304,11243.29357025,0.8606381367435727,2.246876616635244,-1.509486305031433,-0.02925048395991325,0.1906963735818863,-0.002394899027422071,0.0214048195630312,0.01754964701831341,-0.03791287913918495,XArbitraryCorrectedZVertical,-0.5433218390410756,0.4732562108966537,-0.429916560479993,0.5440603726552837,0.04779378697276115,0.9981211423873901,0.03834012523293495,1.159325957298279,37.96670913696289,-20.43339538574219,1,11237.662025875,walking,0,2016-03-02 02:48:24.219,2016-03-02 02:47:07.556,54,34.89709,1,2,2016-03-02 02:48:26.840,11242.50259525,0,-0.01763916,97.39109,192.168.1.101,100.78.239.175,2,1,0.35,0
2016-03-02 02:48:29.953,2,234B9614-18C8-49ED-8B56-CAB6C4F40872,my_iOS_device_1,1456908509.000026,40.79919322397634,-96.6857334506667,366.0173,0.21,300.9375,4,10,-9999,1456908509.900738,9.077458381652832,42.2060546875,-5.8853759765625,201.6762847900391,198.3991546630859,25,11243.37349625,0.065338134765625,1.018905639648438,0.0348968505859375,11243.36359525,-0.0008857673785603546,0.1977857836252418,-0.002245577431154814,11243.32856825,0.8586778048764413,2.251428332068476,-1.508791379376181,-0.04636222869157791,0.1800673305988312,0.003756663762032986,0.01316723972558975,0.01455596834421158,-0.01457968167960644,XArbitraryCorrectedZVertical,-0.5418669854067327,0.475265233716416,-0.4314335704831495,0.542557095619299,0.04815783351659775,0.9980782866477966,0.03899374604225159,1.374862670898438,37.91893005371094,-20.50861167907715,1,11237.662025875,walking,0,2016-03-02 02:48:24.219,2016-03-02 02:47:07.556,54,34.89709,1,2,2016-03-02 02:48:26.840,11242.50259525,0,-0.01763916,97.39109,192.168.1.101,100.78.239.175,2,1,0.35,0
2016-03-02 02:48:29.977,3,234B9614-18C8-49ED-8B56-CAB6C4F40872,my_iOS_device_1,1456908509.000026,40.79919322397634,-96.6857334506667,366.0173,0.21,300.9375,4,10,-9999,1456908509.960118,9.077455520629883,41.9276123046875,-5.753173828125,202.0374908447266,198.7603607177734,25,11243.40377925,0.0570068359375,1.007537841796875,0.028900146484375,11243.36359525,-0.0008857673785603546,0.1977857836252418,-0.002245577431154814,11243.36359525,0.8454501915975193,2.244063773216241,-1.507893886427016,0.01852858439087868,0.1694803833961487,0.003641249146312475,0.01585846394300461,0.0177705530077219,-0.009808136150240898,XArbitraryCorrectedZVertical,-0.540294186979646,0.4771587509266115,-0.4327024173460945,0.5414520624699785,0.04914397746324539,0.9980223178863525,0.03919656574726105,1.562590718269348,37.93905258178711,-20.4578914642334,1,11237.662025875,walking,0,2016-03-02 02:48:24.219,2016-03-02 02:47:07.556,54,34.89709,1,2,2016-03-02 02:48:26.840,11242.50259525,0,-0.01763916,97.39109,192.168.1.101,100.78.239.175,2,1,0.35,0
2016-03-02 02:48:30.025,4,234B9614-18C8-49ED-8B56-CAB6C4F40872,my_iOS_device_1,1456908509.000026,40.79919322397634,-96.6857334506667,366.0173,0.21,300.9375,4,10,-9999,1456908510.020851,9.216213226318359,41.57954406738281,-5.6209716796875,202.4987335205078,199.2216033935547,25,11243.43408225,0.0476837158203125,1.00396728515625,0.03240966796875,11243.39860625,0.004500742242233913,0.2105388631373042,-0.006436860354721519,11243.39860625,0.8224397750986142,2.227223763396803,-1.508031607643034,0.02391623891890049,0.1822340190410614,-0.0005487471935339272,0.01294916402548552,0.01788397505879402,-0.008631749078631401,XArbitraryCorrectedZVertical,-0.538448708631833,0.4787617114773262,-0.4344345046361975,0.5404876251844285,0.04968816414475441,0.998030960559845,0.03827957808971405,1.743495464324951,37.91196060180664,-20.49346733093262,1,11237.662025875,walking,0,2016-03-02 02:48:24.219,2016-03-02 02:47:07.556,54,34.89709,1,2,2016-03-02 02:48:26.840,11242.50259525,0,-0.01763916,97.39109,192.168.1.101,100.78.239.175,2,1,0.35,0
2016-03-02 02:48:30.038,5,234B9614-18C8-49ED-8B56-CAB6C4F40872,my_iOS_device_1,1456908509.000026,40.79919322397634,-96.6857334506667,366.0173,0.21,300.9375,4,10,-9999,1456908510.020851,9.216213226318359,41.57954406738281,-5.6209716796875,202.4987335205078,199.2216033935547,25,11243.46438525,0.0499725341796875,1.017486572265625,0.0259246826171875,11243.43361725,-0.01864718763662582,0.234932619774103,-0.02383742228508124,11243.43361725,0.8178494491037676,2.229633710449937,-1.508722676002668,0.0007690689526498318,0.206627830862999,-0.01794928126037121,-0.0009546991204842925,0.001239305012859404,-0.004453404806554317,XArbitraryCorrectedZVertical,-0.5368403790532951,0.4804070040471264,-0.4365699268875637,0.5389046453852058,0.04905040189623833,0.9980740547180176,0.03797696530818939,1.825946688652039,37.8978385925293,-20.51239585876465,1,11237.662025875,walking,0,2016-03-02 02:48:24.219,2016-03-02 02:47:07.556,54,34.89709,1,2,2016-03-02 02:48:26.840,11242.50259525,0,-0.01763916,97.39109,192.168.1.101,100.78.239.175,2,1,0.35,0
2016-03-02 02:48:30.068,6,234B9614-18C8-49ED-8B56-CAB6C4F40872,my_iOS_device_1,1456908509.000026,40.79919322397634,-96.6857334506667,366.0173,0.21,300.9375,4,10,-9999,1456908510.020851,9.216213226318359,41.57954406738281,-5.6209716796875,202.4987335205078,199.2216033935547,25,11243.49469125,0.0559844970703125,1.021469116210938,0.0388641357421875,11243.46862325,-0.01653609984052001,0.2328103467014189,-0.02273993359985959,11243.46862325,0.8158657793535948,2.234939102099872,-1.509759845002708,0.002881614957004786,0.2045052796602249,-0.0168526116758585,0.001939471112564206,0.01934872008860111,-0.01167389377951622,XArbitraryCorrectedZVertical,-0.5352274333374156,0.4820071396853479,-0.4388989813027179,0.5371856253724745,0.04803306236863136,0.9981378316879272,0.03759857639670372,1.902862548828125,37.88863372802734,-20.52241134643555,1,11237.662025875,walking,0,2016-03-02 02:48:24.219,2016-03-02 02:47:07.556,54,34.89709,1,2,2016-03-02 02:48:26.840,11242.50259525,0,-0.01763916,97.39109,192.168.1.101,100.78.239.175,2,1,0.35,0
2016-03-02 02:48:30.106,7,234B9614-18C8-49ED-8B56-CAB6C4F40872,my_iOS_device_1,1456908510.000026,40.79918932639136,-96.68574225166503,366.0528,0.23,294.2578125,4,10,-9999,1456908510.075694,9.389659881591797,41.89280700683594,-5.7200927734375,202.9491424560547,199.6720123291016,25,11243.52496425,0.0674591064453125,1.005020141601562,0.031890869140625,11243.50362325,0.006799582895190311,0.2243324396872607,-0.01813373017845854,11243.46862325,0.8158657793535948,2.234939102099872,-1.509759845002708,0.002881614957004786,0.2045052796602249,-0.0168526116758585,0.001939471112564206,0.01934872008860111,-0.01167389377951622,XArbitraryCorrectedZVertical,-0.5352274333374156,0.4820071396853479,-0.4388989813027179,0.5371856253724745,0.04803306236863136,0.9981378316879272,0.03759857639670372,1.902862548828125,37.88863372802734,-20.52241134643555,1,11237.662025875,walking,0,2016-03-02 02:48:24.219,2016-03-02 02:47:07.556,54,34.89709,1,2,2016-03-02 02:48:26.840,11242.50259525,0,-0.01763916,97.39109,192.168.1.101,100.78.239.175,2,1,0.35,0
2016-03-02 02:48:30.129,8,234B9614-18C8-49ED-8B56-CAB6C4F40872,my_iOS_device_1,1456908510.000026,40.79918932639136,-96.68574225166503,366.0528,0.23,294.2578125,4,10,-9999,1456908510.075694,9.389659881591797,41.89280700683594,-5.7200927734375,202.9491424560547,199.6720123291016,25,11243.55526725,0.0775299072265625,1.002716064453125,0.0302886962890625,11243.53865525,-0.01876809515011542,0.2104949209793179,-0.01636645647908196,11243.50362325,0.8073787171626616,2.233435413372237,-1.510292103601575,0.02621770650148392,0.1960277855396271,-0.01224550232291222,0.008313794620335102,0.02329893782734871,0.001664669602178037,XArbitraryCorrectedZVertical,-0.5335225502795876,0.4836873178147268,-0.4409651916000027,0.5356771105111005,0.04767070338129997,0.9981701970100403,0.037199467420578,2.116156101226807,37.86774063110352,-20.54007720947266,1,11237.662025875,walking,0,2016-03-02 02:48:24.219,2016-03-02 02:47:07.556,54,34.89709,1,2,2016-03-02 02:48:26.840,11242.50259525,0,-0.01763916,97.39109,192.168.1.101,100.78.239.175,2,1,0.35,0
2016-03-02 02:48:30.162,9,234B9614-18C8-49ED-8B56-CAB6C4F40872,my_iOS_device_1,1456908510.000026,40.79918932639136,-96.68574225166503,366.0528,0.23,294.2578125,4,10,-9999,1456908510.135117,9.667177200317383,42.03204345703125,-5.9844970703125,203.4424133300781,200.165283203125,25,11243.58557725,0.0667266845703125,1.01556396484375,0.031219482421875,11243.57367225,-0.03366155723027454,0.1881494015368991,-0.01763705063515876,11243.53865525,0.7873692616528863,2.220011817141414,-1.510188758016177,0.0006515273707918823,0.1821911782026291,-0.0104753477498889,0.02360572479665279,0.00327040278352797,-0.005429620854556561,XArbitraryCorrectedZVertical,-0.5316370479172543,0.48545992853915,-0.4427069079840059,0.5345103373067907,0.04824791476130486,0.9981639385223389,0.03661858662962914,2.116156101226807,37.86774063110352,-20.54007720947266,1,11237.662025875,walking,0,2016-03-02 02:48:24.219,2016-03-02 02:47:07.556,54,34.89709,1,2,2016-03-02 02:48:26.840,11242.50259525,0,-0.01763916,97.39109,192.168.1.101,100.78.239.175,2,1,0.35,0
2016-03-02 02:48:30.189,10,234B9614-18C8-49ED-8B56-CAB6C4F40872,my_iOS_device_1,1456908510.000026,40.79918932639136,-96.68574225166503,366.0528,0.23,294.2578125,4,10,-9999,1456908510.135117,9.667177200317383,42.03204345703125,-5.9844970703125,203.4424133300781,200.165283203125,25,11243.61587525,0.0540313720703125,1.018157958984375,0.038787841796875,11243.60867225,-0.01984427854661644,0.1743355849626581,-0.01742932407013258,11243.57367225,0.7781285957816677,2.216664308828551,-1.509352930550935,-0.01424033008515835,0.1598466783761978,-0.01174221094697714,0.02725749090313911,0.00805160216987133,-0.008684475906193256,XArbitraryCorrectedZVertical,-0.5301043181145105,0.4873078266219006,-0.4439845839770238,0.5332899616720028,0.04903645440936089,0.9981129765510559,0.03695901110768318,2.476580619812012,37.83808135986328,-20.55443572998047,1,11237.662025875,walking,0,2016-03-02 02:48:24.219,2016-03-02 02:47:07.556,54,34.89709,1,2,2016-03-02 02:48:26.840,11242.50259525,0,-0.01763916,97.39109,192.168.1.101,100.78.239.175,2,1,0.35,0
2016-03-02 02:48:30.220,11,234B9614-18C8-49ED-8B56-CAB6C4F40872,my_iOS_device_1,1456908510.000026,40.79918932639136,-96.68574225166503,366.0528,0.23,294.2578125,4,10,-9999,1456908510.193736,9.38966178894043,41.892822265625,-6.050537109375,203.8492736816406,200.5721435546875,25,11243.64617125,0.05194091796875,1.014739990234375,0.033477783203125,11243.60867225,-0.01984427854661644,0.1743355849626581,-0.01742932407013258,11243.60867225,0.7670279822451868,2.210801049741438,-1.508987131414573,-0.0004214944783598185,0.1460334956645966,-0.01153181679546833,0.007827889174222946,0.01993020996451378,-0.005043812561780214,XArbitraryCorrectedZVertical,-0.5286858829220296,0.4888104845115057,-0.4452581503100569,0.5322600182364216,0.04954515770077705,0.9980904459953308,0.03688890486955643,2.567089557647705,37.83652114868164,-20.54619789123535,1,11237.662025875,walking,0,2016-03-02 02:48:24.219,2016-03-02 02:47:07.556,54,34.89709,1,2,2016-03-02 02:48:26.840,11242.50259525,0,-0.01763916,97.39109,192.168.1.101,100.78.239.175,2,1,0.35,0
2016-03-02 02:48:30.269,12,234B9614-18C8-49ED-8B56-CAB6C4F40872,my_iOS_device_1,1456908510.000026,40.79918932639136,-96.68574225166503,366.0528,0.23,294.2578125,4,10,-9999,1456908510.252872,9.597798347473145,41.82322692871094,-6.31488037109375,204.177978515625,200.9008483886719,25,11243.67647025,0.0573883056640625,1.008392333984375,0.0474090576171875,11243.64369425,0.006602775290633456,0.1573675203933272,-0.00744486682731651,11243.64369425,0.762842381944426,2.211382523075644,-1.509480445226484,0.02602572739124298,0.1290655583143234,-0.001547262771055102,-0.0005144349997863173,0.01727534830570221,-0.002565812785178423,XArbitraryCorrectedZVertical,-0.527550536491862,0.4899001392424687,-0.4467017567528127,0.5311740068294916,0.0491289384663105,0.9981207847595215,0.03662342950701714,2.694723606109619,37.82832717895508,-20.54494667053223,1,11237.662025875,walking,0,2016-03-02 02:48:24.219,2016-03-02 02:47:07.556,54,34.89709,1,2,2016-03-02 02:48:26.840,11242.50259525,0,-0.01763916,97.39109,192.168.1.101,100.78.239.175,2,1,0.35,0
2016-03-02 02:48:30.281,13,234B9614-18C8-49ED-8B56-CAB6C4F40872,my_iOS_device_1,1456908510.000026,40.79918932639136,-96.68574225166503,366.0528,0.23,294.2578125,4,10,-9999,1456908510.252872,9.597798347473145,41.82322692871094,-6.31488037109375,204.177978515625,200.9008483886719,25,11243.70676925,0.0573883056640625,1.020858764648438,0.0267181396484375,11243.67871025,0.005563343517175528,0.1701245946470248,-0.008532235500395863,11243.64369425,0.762842381944426,2.211382523075644,-1.509480445226484,0.02602572739124298,0.1290655583143234,-0.001547262771055102,-0.0005144349997863173,0.01727534830570221,-0.002565812785178423,XArbitraryCorrectedZVertical,-0.527550536491862,0.4899001392424687,-0.4467017567528127,0.5311740068294916,0.0491289384663105,0.9981207847595215,0.03662342950701714,2.694723606109619,37.82832717895508,-20.54494667053223,1,11237.662025875,walking,0,2016-03-02 02:48:24.219,2016-03-02 02:47:07.556,54,34.89709,1,2,2016-03-02 02:48:26.840,11242.50259525,0,-0.01763916,97.39109,192.168.1.101,100.78.239.175,2,1,0.35,0
2016-03-02 02:48:30.311,14,234B9614-18C8-49ED-8B56-CAB6C4F40872,my_iOS_device_1,1456908510.000026,40.79918932639136,-96.68574225166503,366.0528,0.23,294.2578125,4,10,-9999,1456908510.252872,9.597798347473145,41.82322692871094,-6.31488037109375,204.177978515625,200.9008483886719,25,11243.73706825,0.0463409423828125,1.004623413085938,0.037261962890625,11243.71372125,0.009896572926843457,0.1967010781132525,-0.01274588897711923,11243.67871025,0.7529509547014885,2.206273428848726,-1.509622799472202,0.02498560771346092,0.1418232768774033,-0.002633684547618032,0.0081872483715415,0.01026285067200661,0.01112144626677036,XArbitraryCorrectedZVertical,-0.5262730240642025,0.4911013232519268,-0.448031526989735,0.5302112270272664,0.04920105636119843,0.9981294870376587,0.03628760948777199,2.801787376403809,37.80776214599609,-20.56846618652344,1,11237.662025875,walking,0,2016-03-02 02:48:24.219,2016-03-02 02:47:07.556,54,34.89709,1,2,2016-03-02 02:48:26.840,11242.50259525,0,-0.01763916,97.39109,192.168.1.101,100.78.239.175,2,1,0.35,0
2016-03-02 02:48:30.352,15,234B9614-18C8-49ED-8B56-CAB6C4F40872,my_iOS_device_1,1456908510.000026,40.79918932639136,-96.68574225166503,366.0528,0.23,294.2578125,4,10,-9999,1456908510.313348,10.08345508575439,41.68399047851562,-6.51318359375,204.5577850341797,201.2806549072266,25,11243.76736725,0.057403564453125,1.013107299804688,0.0319671630859375,11243.74873225,0.01099858898591825,0.1892492870671018,-0.01592330647369277,11243.74873225,0.7222573949201549,2.186997941538944,-1.511170430093347,0.03042162768542767,0.1609483063220978,-0.01002394687384367,0.001158779836259782,0.007987424731254578,0.002578073646873236,XArbitraryCorrectedZVertical,-0.5231219675464095,0.4935213079292169,-0.4516498061077246,0.5280081233589594,0.04863064736127853,0.9982228875160217,0.03443975001573563,2.937130928039551,37.79372024536133,-20.57539176940918,1,11237.662025875,walking,0,2016-03-02 02:48:24.219,2016-03-02 02:47:07.556,54,34.89709,1,2,2016-03-02 02:48:26.840,11242.50259525,0,-0.01763916,97.39109,192.168.1.101,100.78.239.175,2,1,0.35,0
2016-03-02 02:48:30.371,16,234B9614-18C8-49ED-8B56-CAB6C4F40872,my_iOS_device_1,1456908510.000026,40.79918932639136,-96.68574225166503,366.0528,0.23,294.2578125,4,10,-9999,1456908510.352665,10.53442001342773,41.50996398925781,-6.5462646484375,204.7868194580078,201.5096893310547,25,11243.79764925,0.0638427734375,1.008926391601562,0.0286865234375,11243.78374825,0.0003645867532318477,0.1732873647576029,-0.01713531108578784,11243.74873225,0.7222573949201549,2.186997941538944,-1.511170430093347,0.03042162768542767,0.1609483063220978,-0.01002394687384367,0.001158779836259782,0.007987424731254578,0.002578073646873236,XArbitraryCorrectedZVertical,-0.5231219675464095,0.4935213079292169,-0.4516498061077246,0.5280081233589594,0.04863064736127853,0.9982228875160217,0.03443975001573563,2.937130928039551,37.79372024536133,-20.57539176940918,1,11237.662025875,walking,0,2016-03-02 02:48:24.219,2016-03-02 02:47:07.556,54,34.89709,1,2,2016-03-02 02:48:26.840,11242.50259525,0,-0.01763916,97.39109,192.168.1.101,100.78.239.175,2,1,0.35,0
2016-03-02 02:48:30.445,17,234B9614-18C8-49ED-8B56-CAB6C4F40872,my_iOS_device_1,1456908510.000026,40.79918932639136,-96.68574225166503,366.0528,0.23,294.2578125,4,10,-9999,1456908510.400201,10.81194019317627,41.78840637207031,-6.5462646484375,205.2685546875,201.9914245605469,25,11243.82794825,0.0672607421875,1.022125244140625,0.0457000732421875,11243.81875925,-0.009311476435353048,0.1530931468437501,-0.01087102356970345,11243.78374825,0.7083559592359057,2.178522237129332,-1.511589109286714,0.01978808827698231,0.1449866443872452,-0.0112348310649395,0.0115571953356266,0.01168570667505264,-0.00496384035795927,XArbitraryCorrectedZVertical,-0.5216259451332507,0.4947728971215461,-0.4532522076619987,0.5269426817855111,0.0485776923596859,0.9982477426528931,0.03378769382834435,3.127779006958008,37.74971008300781,-20.62800979614258,1,11237.662025875,walking,0,2016-03-02 02:48:24.219,2016-03-02 02:47:07.556,54,34.89709,1,2,2016-03-02 02:48:26.840,11243.81524725,0,0.04205322,97.3904,192.168.1.101,100.78.239.175,2,1,0.35,0
2016-03-02 02:48:30.447,18,234B9614-18C8-49ED-8B56-CAB6C4F40872,my_iOS_device_1,1456908510.000026,40.79918932639136,-96.68574225166503,366.0528,0.23,294.2578125,4,10,-9999,1456908510.400201,10.81194019317627,41.78840637207031,-6.5462646484375,205.2685546875,201.9914245605469,25,11243.85824625,0.055999755859375,1.012649536132812,0.026458740234375,11243.85377025,0.02789501452192597,0.1435534375029772,-0.009260077426314519,11243.81875925,0.694814676920115,2.169639644576465,-1.511346809835404,0.01011278945952654,0.1247930750250816,-0.004967373330146074,0.01765100657939911,0.02335778810083866,0.004228516016155481,XArbitraryCorrectedZVertical,-0.52027408512207,0.4960448382884736,-0.4544167535469887,0.5260796601785297,0.04907567799091339,0.9982333779335022,0.03349120914936066,3.196112155914307,37.73796844482422,-20.63902282714844,1,11237.662025875,walking,0,2016-03-02 02:48:24.219,2016-03-02 02:47:07.556,54,34.89709,1,2,2016-03-02 02:48:26.840,11243.81524725,0,0.04205322,97.3904,192.168.1.101,100.78.239.175,2,1,0.35,0
2016-03-02 02:48:30.473,19,234B9614-18C8-49ED-8B56-CAB6C4F40872,my_iOS_device_1,1456908510.000026,40.79918932639136,-96.68574225166503,366.0528,0.23,294.2578125,4,10,-9999,1456908510.462538,11.15883350372314,41.78843688964844,-6.34796142578125,205.8194122314453,202.5422821044922,25,11243.88855425,0.0594635009765625,1.002960205078125,0.0219268798828125,11243.88877825,0.01091230256659968,0.1328978636654612,-0.01269848470971582,11243.85377025,0.6775215938824963,2.15651636614114,-1.51116366296638,0.04731842130422592,0.1152542307972908,-0.003353872103616595,0.01160073559731245,0.02185806632041931,0.001203794497996569,XArbitraryCorrectedZVertical,-0.5189546053289729,0.4971506867118443,-0.4554877852881433,0.5254123997043471,0.04966330155730247,0.9982224702835083,0.03294537588953972,3.328622817993164,37.72346496582031,-20.64458847045898,1,11237.662025875,walking,0,2016-03-02 02:48:24.219,2016-03-02 02:47:07.556,54,34.89709,1,2,2016-03-02 02:48:26.840,11243.81524725,0,0.04205322,97.3904,192.168.1.101,100.78.239.175,2,1,0.35,0
2016-03-02 02:48:30.522,20,234B9614-18C8-49ED-8B56-CAB6C4F40872,my_iOS_device_1,1456908510.000026,40.79918932639136,-96.68574225166503,366.0528,0.23,294.2578125,4,10,-9999,1456908510.462538,11.15883350372314,41.78843688964844,-6.34796142578125,205.8194122314453,202.5422821044922,25,11243.91885425,0.06134033203125,1.014419555664062,0.039703369140625,11243.88877825,0.01091230256659968,0.1328978636654612,-0.01269848470971582,11243.88877825,0.6444171819761625,2.1272139474843,-1.512242671493437,0.03033780306577682,0.1045983880758286,-0.006791465450078249,0.009770920500159264,0.004673980642110109,-0.008980425074696541,XArbitraryCorrectedZVertical,-0.5174782932378925,0.4976644134335959,-0.4569728959162562,0.5250924871175461,0.04969258233904839,0.998286247253418,0.03090730495750904,3.400011539459229,37.71684265136719,-20.64505386352539,1,11237.662025875,walking,0,2016-03-02 02:48:24.219,2016-03-02 02:47:07.556,54,34.89709,1,2,2016-03-02 02:48:26.840,11243.81524725,0,0.04205322,97.3904,192.168.1.101,100.78.239.175,2,1,0.35,0
2016-03-02 02:48:30.533,21,234B9614-18C8-49ED-8B56-CAB6C4F40872,my_iOS_device_1,1456908510.000026,40.79918932639136,-96.68574225166503,366.0528,0.23,294.2578125,4,10,-9999,1456908510.523068,11.02007675170898,41.37075805664062,-6.7445068359375,206.2926635742188,203.0155334472656,25,11243.94914925,0.0526885986328125,1.014068603515625,0.0386962890625,11243.92379725,0.001324123693987397,0.1126860688884138,-0.01282738170647566,11243.92379725,0.6326882936516783,2.118644724138139,-1.512118943439811,0.02074920386075974,0.08438727259635925,-0.006918066181242466,0.01127928867936134,0.01614058017730713,0.00915868766605854,XArbitraryCorrectedZVertical,-0.5165078466911199,0.4984897041353367,-0.4577917660667239,0.5245515781113084,0.05006104335188866,0.9982789754867554,0.03054468147456646,3.54725193977356,37.65194702148438,-20.73852920532227,1,11237.662025875,walking,0,2016-03-02 02:48:24.219,2016-03-02 02:47:07.556,54,34.89709,1,2,2016-03-02 02:48:26.840,11243.81524725,0,0.04205322,97.3904,192.168.1.101,100.78.239.175,2,1,0.35,0
2016-03-02 02:48:30.555,22,234B9614-18C8-49ED-8B56-CAB6C4F40872,my_iOS_device_1,1456908510.000026,40.79918932639136,-96.68574225166503,366.0528,0.23,294.2578125,4,10,-9999,1456908510.523068,11.02007675170898,41.37075805664062,-6.7445068359375,206.2926635742188,203.0155334472656,25,11243.97944725,0.051025390625,1.009475708007812,0.03985595703125,11243.95880925,0.00334919138688365,0.09356403962942685,-0.006393717145062235,11243.95880925,0.6273095759244229,2.115930344315417,-1.51230409489501,0.02277301251888275,0.06526584923267365,-0.0004838006279896945,0.002702873665839434,0.01577878557145596,0.008383446373045444,XArbitraryCorrectedZVertical,-0.5158024677167929,0.4991034315771205,-0.458566654430359,0.5239849256703333,0.04998572543263435,0.9982898235321045,0.03031284175813198,3.627865314483643,37.64468002319336,-20.73777389526367,1,11237.662025875,walking,0,2016-03-02 02:48:24.219,2016-03-02 02:47:07.556,54,34.89709,1,2,2016-03-02 02:48:26.840,11243.81524725,0,0.04205322,97.3904,192.168.1.101,100.78.239.175,2,1,0.35,0
2016-03-02 02:48:30.601,23,234B9614-18C8-49ED-8B56-CAB6C4F40872,my_iOS_device_1,1456908510.000026,40.79918932639136,-96.68574225166503,366.0528,0.23,294.2578125,4,10,-9999,1456908510.583731,10.81194019317627,41.02268981933594,-6.7445068359375,206.7054748535156,203.4283447265625,25,11244.00974625,0.0620880126953125,1.0164794921875,0.0318145751953125,11243.99380025,-0.005151086180431263,0.0861109170027311,-0.007579090146256504,11243.99380025,0.6252567490253088,2.116065935364598,-1.512213393229201,0.01427083276212215,0.05781356245279312,-0.001668361248448491,0.003484060522168875,0.01319009903818369,0.005628901999443769,XArbitraryCorrectedZVertical,-0.5152517212245625,0.4996988637350943,-0.459107120387475,0.5234857795265221,0.05005903169512749,0.9982845187187195,0.03036658093333244,5.011398792266846,37.95281600952148,-19.98531723022461,1,11237.662025875,walking,0,2016-03-02 02:48:24.219,2016-03-02 02:47:07.556,54,34.89709,1,2,2016-03-02 02:48:26.840,11243.81524725,0,0.04205322,97.3904,192.168.1.101,100.78.239.175,2,1,0.35,0
2016-03-02 02:48:30.615,24,234B9614-18C8-49ED-8B56-CAB6C4F40872,my_iOS_device_1,1456908510.000026,40.79918932639136,-96.68574225166503,366.0528,0.23,294.2578125,4,10,-9999,1456908510.583731,10.81194019317627,41.02268981933594,-6.7445068359375,206.7054748535156,203.4283447265625,25,11244.04004525,0.05865478515625,1.006927490234375,0.0406646728515625,11244.02883125,-0.0008751147342000377,0.07547425160895462,-0.009643039991067914,11243.99380025,0.6252567490253088,2.116065935364598,-1.512213393229201,0.01427083276212215,0.05781356245279312,-0.001668361248448491,0.003484060522168875,0.01319009903818369,0.005628901999443769,XArbitraryCorrectedZVertical,-0.5152517212245625,0.4996988637350943,-0.459107120387475,0.5234857795265221,0.05005903169512749,0.9982845187187195,0.03036658093333244,5.011398792266846,37.95281600952148,-19.98531723022461,1,11237.662025875,walking,0,2016-03-02 02:48:24.219,2016-03-02 02:47:07.556,54,34.89709,1,2,2016-03-02 02:48:26.840,11243.81524725,0,0.04205322,97.3904,192.168.1.101,100.78.239.175,2,1,0.35,0
2016-03-02 02:48:30.682,25,234B9614-18C8-49ED-8B56-CAB6C4F40872,my_iOS_device_1,1456908510.000026,40.79918932639136,-96.68574225166503,366.0528,0.23,294.2578125,4,10,-9999,1456908510.638745,11.50572967529297,41.44036865234375,-7.0089111328125,207.1307525634766,203.8536224365234,25,11244.07034525,0.0537261962890625,1.011398315429688,0.0378265380859375,11244.06382825,-0.02111087796105812,0.0797185314382139,-0.007807589367785302,11244.02883125,0.6140362282704129,2.106671102803173,-1.512199522310631,0.01854666508734226,0.04717720672488213,-0.00373085867613554,0.007202140055596828,0.01560179982334375,0.0003408977936487645,XArbitraryCorrectedZVertical,-0.5146037743793492,0.500133948517798,-0.4596196463370925,0.5232578424022702,0.0503540113568306,0.9982836842536926,0.02990202233195305,5.066948413848877,37.94771194458008,-19.98101234436035,1,11237.662025875,walking,0,2016-03-02 02:48:24.219,2016-03-02 02:47:07.556,54,34.89709,1,2,2016-03-02 02:48:26.840,11243.81524725,0,0.04205322,97.3904,192.168.1.101,100.78.239.175,2,1,0.35,0
2016-03-02 02:48:30.684,26,234B9614-18C8-49ED-8B56-CAB6C4F40872,my_iOS_device_1,1456908510.000026,40.79918932639136,-96.68574225166503,366.0528,0.23,294.2578125,4,10,-9999,1456908510.638745,11.50572967529297,41.44036865234375,-7.0089111328125,207.1307525634766,203.8536224365234,25,11244.10062825,0.050262451171875,1.011428833007812,0.0435333251953125,11244.06382825,-0.02111087796105812,0.0797185314382139,-0.007807589367785302,11244.06382825,0.6188217455125519,2.113177754866022,-1.51195881555195,-0.001691331970505416,0.05142240598797798,-0.00189429335296154,0.000249212171183899,0.01276253163814545,0.01006747595965862,XArbitraryCorrectedZVertical,-0.5142859255339227,0.5006860441804339,-0.4599569497411874,0.5227457090645861,0.05036419257521629,0.9982695579528809,0.03035305626690388,5.096512794494629,37.93927383422852,-19.98950958251953,1,11237.662025875,walking,0,2016-03-02 02:48:24.219,2016-03-02 02:47:07.556,54,34.89709,1,2,2016-03-02 02:48:26.840,11243.81524725,0,0.04205322,97.3904,192.168.1.101,100.78.239.175,2,1,0.35,0
2016-03-02 02:48:30.712,27,234B9614-18C8-49ED-8B56-CAB6C4F40872,my_iOS_device_1,1456908510.000026,40.79918932639136,-96.68574225166503,366.0528,0.23,294.2578125,4,10,-9999,1456908510.704875,11.64448738098145,41.37075805664062,-6.7445068359375,207.5945587158203,204.3174285888672,25,11244.13092725,0.0467529296875,1.013961791992188,0.032440185546875,11244.09886325,-0.03698038858073129,0.0764987696803081,-0.01443087099881237,11244.09886325,0.6281341820269609,2.124189868224202,-1.511704960556293,-0.01754471845924854,0.04815827310085297,-0.008513818494975567,0.002339303493499756,0.014196558855474,0.005185355897992849,XArbitraryCorrectedZVertical,-0.5140654172325324,0.5012546771971621,-0.4602656798867358,0.5221455729122875,0.05024248361587524,0.9982545971870422,0.03103900887072086,5.158019542694092,37.949951171875,-19.95343208312988,1,11237.662025875,walking,0,2016-03-02 02:48:24.219,2016-03-02 02:47:07.556,54,34.89709,1,2,2016-03-02 02:48:26.840,11243.81524725,0,0.04205322,97.3904,192.168.1.101,100.78.239.175,2,1,0.35,0
2016-03-02 02:48:30.761,28,234B9614-18C8-49ED-8B56-CAB6C4F40872,my_iOS_device_1,1456908510.000026,40.79918932639136,-96.68574225166503,366.0528,0.23,294.2578125,4,10,-9999,1456908510.704875,11.64448738098145,41.37075805664062,-6.7445068359375,207.5945587158203,204.3174285888672,25,11244.16122425,0.0568695068359375,1.013626098632812,0.0377655029296875,11244.13387325,-0.03597877369475249,0.09140181914039151,-0.009095227754838614,11244.13387325,0.6495407798688726,2.147604500648892,-1.511513947441187,-0.01654517091810703,0.06306203454732895,-0.00317882769741118,-0.002908909693360329,0.01571847684681416,0.0001293957902817056,XArbitraryCorrectedZVertical,-0.5140297032361549,0.501925152855111,-0.4606323718356514,0.5212124548966338,0.04966184124350548,0.9982433319091797,0.03231079131364822,5.181578159332275,37.97919464111328,-19.89159202575684,1,11237.662025875,walking,0,2016-03-02 02:48:24.219,2016-03-02 02:47:07.556,54,34.89709,1,2,2016-03-02 02:48:26.840,11243.81524725,0,0.04205322,97.3904,192.168.1.101,100.78.239.175,2,1,0.35,0
2016-03-02 02:48:30.767,29,234B9614-18C8-49ED-8B56-CAB6C4F40872,my_iOS_device_1,1456908510.000026,40.79918932639136,-96.68574225166503,366.0528,0.23,294.2578125,4,10,-9999,1456908510.753212,11.26290130615234,40.98786926269531,-7.04193115234375,207.9584350585938,204.6813049316406,25,11244.19153825,0.0445556640625,1.009262084960938,0.036590576171875,11244.16888425,-0.02738475285706679,0.08713703297073863,-0.01536271106423109,11244.16888425,0.6558143029749498,2.155928256818724,-1.511284896286039,-0.007951470091938972,0.05879747867584229,-0.009445670992136002,0.007287722546607256,0.01539638079702854,0.004916180390864611,XArbitraryCorrectedZVertical,-0.5136718004285217,0.5025593923113213,-0.4610555918379091,0.5205795615265563,0.04958178475499153,0.9982297420501709,0.03284932300448418,5.201352119445801,37.9857177734375,-19.87397003173828,1,11237.662025875,walking,0,2016-03-02 02:48:24.219,2016-03-02 02:47:07.556,54,34.89709,1,2,2016-03-02 02:48:26.840,11243.81524725,0,0.04205322,97.3904,192.168.1.101,100.78.239.175,2,1,0.35,0
2016-03-02 02:48:30.804,30,234B9614-18C8-49ED-8B56-CAB6C4F40872,my_iOS_device_1,1456908510.000026,40.79918932639136,-96.68574225166503,366.0528,0.23,294.2578125,4,10,-9999,1456908510.753212,11.26290130615234,40.98786926269531,-7.04193115234375,207.9584350585938,204.6813049316406,25,11244.22183625,0.0520782470703125,1.020706176757812,0.036712646484375,11244.20388425,-0.03485731655972012,0.09032749995665355,-0.01334137179686095,11244.16888425,0.6558143029749498,2.155928256818724,-1.511284896286039,-0.007951470091938972,0.05879747867584229,-0.009445670992136002,0.007287722546607256,0.01539638079702854,0.004916180390864611,XArbitraryCorrectedZVertical,-0.5136718004285217,0.5025593923113213,-0.4610555918379091,0.5205795615265563,0.04958178475499153,0.9982297420501709,0.03284932300448418,5.201352119445801,37.9857177734375,-19.87397003173828,1,11237.662025875,walking,0,2016-03-02 02:48:24.219,2016-03-02 02:47:07.556,54,34.89709,1,2,2016-03-02 02:48:26.840,11243.81524725,0,0.04205322,97.3904,192.168.1.101,100.78.239.175,2,1,0.35,0
2016-03-02 02:48:30.842,31,234B9614-18C8-49ED-8B56-CAB6C4F40872,my_iOS_device_1,1456908510.000026,40.79918932639136,-96.68574225166503,366.0528,0.23,294.2578125,4,10,-9999,1456908510.812097,11.05476188659668,40.63980102539062,-6.3809814453125,208.3345336914062,205.0574035644531,25,11244.25213325,0.057586669921875,1.010025024414062,0.0350341796875,11244.23891225,-0.02319107308851901,0.08396174600303716,-0.0110372048217244,11244.20388425,0.6705032885112959,2.172827413965586,-1.511293344316385,-0.01542524341493845,0.06198842823505402,-0.007424717303365469,-0.004197591450065374,0.01306128408759832,0.003767361398786306,XArbitraryCorrectedZVertical,-0.5134677288307137,0.5031796348351664,-0.4615778184764834,0.5197182544677998,0.04901265352964401,0.9982302188873291,0.03367770835757256,5.226580619812012,37.99054336547852,-19.85812377929688,1,11237.662025875,walking,0,2016-03-02 02:48:24.219,2016-03-02 02:47:07.556,54,34.89709,1,2,2016-03-02 02:48:26.840,11243.81524725,0,0.04205322,97.3904,192.168.1.101,100.78.239.175,2,1,0.35,0
2016-03-02 02:48:30.861,32,234B9614-18C8-49ED-8B56-CAB6C4F40872,my_iOS_device_1,1456908510.000026,40.79918932639136,-96.68574225166503,366.0528,0.23,294.2578125,4,10,-9999,1456908510.812097,11.05476188659668,40.63980102539062,-6.3809814453125,208.3345336914062,205.0574035644531,25,11244.28243125,0.0503082275390625,1.0126953125,0.0330657958984375,11244.27392325,-0.02010260517235412,0.08398464918841184,-0.003532150553772094,11244.23891225,0.6777296232271923,2.182032101816376,-1.511137575639685,-0.003759431652724743,0.05562291294336319,-0.005120260175317526,0.004730420652776957,0.01865527592599392,0.000588643888477236,XArbitraryCorrectedZVertical,-0.5131523827508703,0.5037687555373977,-0.4620079875100337,0.5190763840691693,0.04882792755961418,0.9982209205627441,0.03421665355563164,5.256145477294922,38.00844955444336,-19.81601142883301,1,11237.662025875,walking,0,2016-03-02 02:48:24.219,2016-03-02 02:47:07.556,54,34.89709,1,2,2016-03-02 02:48:26.840,11243.81524725,0,0.04205322,97.3904,192.168.1.101,100.78.239.175,2,1,0.35,0
2016-03-02 02:48:30.922,33,234B9614-18C8-49ED-8B56-CAB6C4F40872,my_iOS_device_1,1456908510.000026,40.79918932639136,-96.68574225166503,366.0528,0.23,294.2578125,4,10,-9999,1456908510.871213,11.40165901184082,40.77900695800781,-6.71148681640625,208.6978912353516,205.4207611083984,25,11244.31272825,0.0582427978515625,1.016220092773438,0.0289459228515625,11244.27392325,-0.02010260517235412,0.08398464918841184,-0.003532150553772094,11244.27392325,0.6747054089311064,2.180937520637154,-1.51078123432137,-0.0006710943416692317,0.05564602091908455,0.002386192325502634,0.004081039689481258,0.0121610825881362,0.000331486837239936,XArbitraryCorrectedZVertical,-0.5126225562355629,0.5043824090815731,-0.4623846407183704,0.5186684338528023,0.04915687441825867,0.9981996417045593,0.03436699882149696,5.298834800720215,38.01734161376953,-19.78755950927734,1,11237.662025875,walking,0,2016-03-02 02:48:24.219,2016-03-02 02:47:07.556,54,34.89709,1,2,2016-03-02 02:48:26.840,11243.81524725,0,0.04205322,97.3904,192.168.1.101,100.78.239.175,2,1,0.35,0
2016-03-02 02:48:30.925,34,234B9614-18C8-49ED-8B56-CAB6C4F40872,my_iOS_device_1,1456908510.000026,40.79918932639136,-96.68574225166503,366.0528,0.23,294.2578125,4,10,-9999,1456908510.871213,11.40165901184082,40.77900695800781,-6.71148681640625,208.6978912353516,205.4207611083984,25,11244.34302525,0.055908203125,1.008956909179688,0.0348358154296875,11244.30893925,-0.0168349065148269,0.06908186604443742,-0.009871539212596711,11244.30893925,0.6714355237798808,2.179371965687495,-1.510925371899314,0.002597014885395765,0.04074329510331154,-0.00395300704985857,0.003443439258262515,0.01703526079654694,-0.003827495267614722,XArbitraryCorrectedZVertical,-0.5121681790549942,0.5047649239944877,-0.462882695616473,0.5183008180267006,0.04909257218241692,0.9982082843780518,0.03420774266123772,5.374302864074707,38.01220703125,-19.77706909179688,1,11237.662025875,walking,0,2016-03-02 02:48:24.219,2016-03-02 02:47:07.556,54,34.89709,1,2,2016-03-02 02:48:26.840,11243.81524725,0,0.04205322,97.3904,192.168.1.101,100.78.239.175,2,1,0.35,0
2016-03-02 02:48:30.950,35,234B9614-18C8-49ED-8B56-CAB6C4F40872,my_iOS_device_1,1456908510.000026,40.79918932639136,-96.68574225166503,366.0528,0.23,294.2578125,4,10,-9999,1456908510.929743,11.15883350372314,40.67459106445312,-6.81060791015625,209.0082702636719,205.7311401367188,25,11244.37331825,0.057403564453125,1.014785766601562,0.027587890625,11244.34395025,-0.02110981269662209,0.06163779816544793,-0.008864065372219737,11244.34395025,0.6654796810628973,2.174644141397446,-1.510752115700667,-0.00167717388831079,0.03329925984144211,-0.002943723928183317,0.006512091960757971,0.01075902115553617,0.0007623531273566186,XArbitraryCorrectedZVertical,-0.51174865808824,0.5051237888771162,-0.4631538503679458,0.5181233248413428,0.04939611256122589,0.9981979131698608,0.03407346084713936,5.395627021789551,38.00754928588867,-19.78021621704102,1,11237.662025875,walking,0,2016-03-02 02:48:24.219,2016-03-02 02:47:07.556,54,34.89709,1,2,2016-03-02 02:48:26.840,11243.81524725,0,0.04205322,97.3904,192.168.1.101,100.78.239.175,2,1,0.35,0
2016-03-02 02:48:31.002,36,234B9614-18C8-49ED-8B56-CAB6C4F40872,my_iOS_device_1,1456908510.000026,40.79918932639136,-96.68574225166503,366.0528,0.23,294.2578125,4,10,-9999,1456908510.989738,10.98538684844971,40.98785400390625,-6.51324462890625,209.2996978759766,206.0225677490234,25,11244.40361425,0.0431976318359375,1.019912719726562,0.0384674072265625,11244.37896125,-0.02543025893305764,0.05207571827151843,-0.004658934010984619,11244.37896125,0.6622326822587268,2.172345018635255,-1.510588314878754,-0.005996679421514273,0.02373712882399559,0.001262189005501568,0.007794441655278206,0.01659772172570229,-0.006464444566518068,XArbitraryCorrectedZVertical,-0.5114508494250875,0.5054148753774902,-0.4633483646048456,0.5179595789127907,0.04960912093520164,0.9981880187988281,0.03405233472585678,5.429943561553955,38.00466918945312,-19.7763614654541,1,11237.662025875,walking,0,2016-03-02 02:48:24.219,2016-03-02 02:47:07.556,54,34.89709,1,2,2016-03-02 02:48:26.840,11243.81524725,0,0.04205322,97.3904,192.168.1.101,100.78.239.175,2,1,0.35,0
2016-03-02 02:48:31.010,37,234B9614-18C8-49ED-8B56-CAB6C4F40872,my_iOS_device_1,1456908510.000026,40.79918932639136,-96.68574225166503,366.0528,0.23,294.2578125,4,10,-9999,1456908510.989738,10.98538684844971,40.98785400390625,-6.51324462890625,209.2996978759766,206.0225677490234,25,11244.43390625,0.055023193359375,1.010391235351562,0.0290985107421875,11244.41394825,-0.03071130737468477,0.06269986680817154,-0.006872553509058482,11244.37896125,0.6622326822587268,2.172345018635255,-1.510588314878754,-0.005996679421514273,0.02373712882399559,0.001262189005501568,0.007794441655278206,0.01659772172570229,-0.006464444566518068,XArbitraryCorrectedZVertical,-0.5114508494250875,0.5054148753774902,-0.4633483646048456,0.5179595789127907,0.04960912093520164,0.9981880187988281,0.03405233472585678,5.429943561553955,38.00466918945312,-19.7763614654541,1,11237.662025875,walking,0,2016-03-02 02:48:24.219,2016-03-02 02:47:07.556,54,34.89709,1,2,2016-03-02 02:48:26.840,11243.81524725,0,0.04205322,97.3904,192.168.1.101,100.78.239.175,2,1,0.35,0
2016-03-02 02:48:31.084,38,234B9614-18C8-49ED-8B56-CAB6C4F40872,my_iOS_device_1,1456908510.000026,40.79918932639136,-96.68574225166503,366.0528,0.23,294.2578125,4,10,-9999,1456908511.050236,11.88731575012207,41.61436462402344,-5.9183349609375,209.7068481445312,206.4297180175781,25,11244.46418625,0.062896728515625,1.00872802734375,0.0340576171875,11244.44898825,-0.02109090425288253,0.04780773630855745,-0.01098820265766694,11244.41394825,0.6719019883233205,2.183064379694296,-1.510479387427633,-0.01127859391272068,0.03436166420578957,-0.0009519632440060377,-0.006300453562289476,0.02437100559473038,-0.003974470309913158,XArbitraryCorrectedZVertical,-0.5114047078793299,0.5057544295475103,-0.4635475545040651,0.517495262263548,0.04933023825287819,0.9981814622879028,0.03464463725686073,5.447324275970459,38.00418853759766,-19.77250099182129,1,11237.662025875,walking,0,2016-03-02 02:48:24.219,2016-03-02 02:47:07.556,54,34.89709,1,2,2016-03-02 02:48:26.840,11243.81524725,0,0.04205322,97.3904,192.168.1.101,100.78.239.175,2,1,0.35,0
2016-03-02 02:48:31.088,39,234B9614-18C8-49ED-8B56-CAB6C4F40872,my_iOS_device_1,1456908510.000026,40.79918932639136,-96.68574225166503,366.0528,0.23,294.2578125,4,10,-9999,1456908511.050236,11.88731575012207,41.61436462402344,-5.9183349609375,209.7068481445312,206.4297180175781,25,11244.49448725,0.044219970703125,1.01171875,0.03192138671875,11244.48400025,-0.03380536792913882,0.05523316205991638,-0.01437387935148467,11244.44898825,0.6664970356053265,2.178538366882405,-1.51044962760469,-0.001657367567531765,0.01946954429149628,-0.005066804587841034,0.01175311673432589,0.004490597639232874,-0.00361522170715034,XArbitraryCorrectedZVertical,-0.5110851332593204,0.5059752704627081,-0.4637783551717067,0.5173882966551386,0.04951092228293419,0.9981796741485596,0.03443797677755356,5.459125518798828,38.01566314697266,-19.7471752166748,1,11237.662025875,walking,0,2016-03-02 02:48:24.219,2016-03-02 02:47:07.556,54,34.89709,1,2,2016-03-02 02:48:26.840,11243.81524725,0,0.04205322,97.3904,192.168.1.101,100.78.239.175,2,1,0.35,0
2016-03-02 02:48:31.101,40,234B9614-18C8-49ED-8B56-CAB6C4F40872,my_iOS_device_1,1456908511.000027,40.79918932639136,-96.68574225166503,366.0537,0,305.859375,4,10,-9999,1456908511.050236,11.88731575012207,41.61436462402344,-5.9183349609375,209.7068481445312,206.4297180175781,25,11244.52479025,0.0478973388671875,1.0113525390625,0.03240966796875,11244.48400025,-0.03380536792913882,0.05523316205991638,-0.01437387935148467,11244.48400025,0.6701985337434513,2.183044330336003,-1.5100983655241,-0.01437131315469742,0.02689502015709877,-0.008450688794255257,0.006433874368667603,0.01356030534952879,-0.002895060228183866,XArbitraryCorrectedZVertical,-0.5109560992745488,0.506315095816702,-0.4638469791534018,0.5171217151624099,0.0496421754360199,0.9981584548950195,0.0348622240126133,5.471530914306641,38.01164245605469,-19.75148391723633,1,11237.662025875,walking,0,2016-03-02 02:48:24.219,2016-03-02 02:47:07.556,54,34.89709,1,2,2016-03-02 02:48:26.840,11243.81524725,0,0.04205322,97.3904,192.168.1.101,100.78.239.175,2,1,0.35,0
2016-03-02 02:48:31.166,41,234B9614-18C8-49ED-8B56-CAB6C4F40872,my_iOS_device_1,1456908511.000027,40.79918932639136,-96.68574225166503,366.0537,0,305.859375,4,10,-9999,1456908511.164415,12.40765857696533,41.71878051757812,-6.54620361328125,210.4882354736328,207.2111053466797,25,11244.55508225,0.051422119140625,1.017715454101562,0.044525146484375,11244.51900125,-0.04017751346937142,0.04884503755314331,-0.01552889231625204,11244.51900125,0.6804791454541695,2.194259532013748,-1.510423865812786,-0.02074253000319004,0.02050691656768322,-0.009607073850929737,-0.004092940129339695,0.01293026190251112,-0.004526387434452772,XArbitraryCorrectedZVertical,-0.5109755968890201,0.5064755421370533,-0.4641716254087357,0.5166538171409244,0.04898429661989212,0.9981781244277954,0.03522707149386406,5.502448558807373,38.02184677124023,-19.72322654724121,1,11237.662025875,walking,0,2016-03-02 02:48:24.219,2016-03-02 02:47:07.556,54,34.89709,1,2,2016-03-02 02:48:26.840,11243.81524725,0,0.04205322,97.3904,192.168.1.101,100.78.239.175,2,1,0.35,0
2016-03-02 02:48:31.168,42,234B9614-18C8-49ED-8B56-CAB6C4F40872,my_iOS_device_1,1456908511.000027,40.79918932639136,-96.68574225166503,366.0537,0,305.859375,4,10,-9999,1456908511.164415,12.40765857696533,41.71878051757812,-6.54620361328125,210.4882354736328,207.2111053466797,25,11244.58537525,0.050140380859375,1.010299682617188,0.038665771484375,11244.55400725,-0.04224545805581795,0.04989512197096155,-0.01982244062567778,11244.55400725,0.6963175887373856,2.210754926898501,-1.510165411074091,-0.02281104028224945,0.02155724540352821,-0.01390062365680933,0.001109626842662692,0.01981234364211559,0.006372448522597551,XArbitraryCorrectedZVertical,-0.5111457761253002,0.5067762351887678,-0.464204634420903,0.5161607311480664,0.04860350862145424,0.9981625080108643,0.03618431463837624,5.497506141662598,38.03894424438477,-19.69161033630371,1,11237.662025875,walking,0,2016-03-02 02:48:24.219,2016-03-02 02:47:07.556,54,34.89709,1,2,2016-03-02 02:48:26.840,11243.81524725,0,0.04205322,97.3904,192.168.1.101,100.78.239.175,2,1,0.35,0
2016-03-02 02:48:31.192,43,234B9614-18C8-49ED-8B56-CAB6C4F40872,my_iOS_device_1,1456908511.000027,40.79918932639136,-96.68574225166503,366.0537,0,305.859375,4,10,-9999,1456908511.164415,12.40765857696533,41.71878051757812,-6.54620361328125,210.4882354736328,207.2111053466797,25,11244.61567125,0.0464935302734375,1.014678955078125,0.043243408203125,11244.58903625,-0.03693112010056483,0.04458211559625347,-0.01974254579297541,11244.58903625,0.714704106144525,2.229746679372331,-1.509898974467283,-0.01749788410961628,0.01624463126063347,-0.01382008194923401,0.002022534841671586,0.01215335354208946,0.001402137917466462,XArbitraryCorrectedZVertical,-0.5113857175687068,0.5070665288252076,-0.4642212448267884,0.5156227487837871,0.04811784625053406,0.9981463551521301,0.03726363182067871,5.495251178741455,38.05410766601562,-19.66292762756348,1,11237.662025875,walking,0,2016-03-02 02:48:24.219,2016-03-02 02:47:07.556,54,34.89709,1,2,2016-03-02 02:48:26.840,11243.81524725,0,0.04205322,97.3904,192.168.1.101,100.78.239.175,2,1,0.35,0
2016-03-02 02:48:31.241,44,234B9614-18C8-49ED-8B56-CAB6C4F40872,my_iOS_device_1,1456908511.000027,40.79918932639136,-96.68574225166503,366.0537,0,305.859375,4,10,-9999,1456908511.223338,11.88731575012207,41.68399047851562,-6.90966796875,210.7302856445312,207.4531555175781,25,11244.64596225,0.04107666015625,1.008285522460938,0.0478668212890625,11244.62403825,-0.04327982982320473,0.04988846406823635,-0.02196894846428165,11244.58903625,0.714704106144525,2.229746679372331,-1.509898974467283,-0.01749788410961628,0.01624463126063347,-0.01382008194923401,0.002022534841671586,0.01215335354208946,0.001402137917466462,XArbitraryCorrectedZVertical,-0.5113857175687068,0.5070665288252076,-0.4642212448267884,0.5156227487837871,0.04811784625053406,0.9981463551521301,0.03726363182067871,5.495251178741455,38.05410766601562,-19.66292762756348,1,11237.662025875,walking,0,2016-03-02 02:48:24.219,2016-03-02 02:47:07.556,54,34.89709,1,2,2016-03-02 02:48:26.840,11243.81524725,0,0.04205322,97.3904,192.168.1.101,100.78.239.175,2,1,0.35,0
2016-03-02 02:48:31.250,45,234B9614-18C8-49ED-8B56-CAB6C4F40872,my_iOS_device_1,1456908511.000027,40.79918932639136,-96.68574225166503,366.0537,0,305.859375,4,10,-9999,1456908511.223338,11.88731575012207,41.68399047851562,-6.90966796875,210.7302856445312,207.4531555175781,25,11244.67626225,0.0511474609375,1.013565063476562,0.05389404296875,11244.65906525,-0.05177451475223047,0.04987914300442108,-0.02315804989100203,11244.62403825,0.7312714127529203,2.246999670594664,-1.509801041060892,-0.02384720183908939,0.02155123092234135,-0.01604692079126835,-0.001050518942065537,0.0165385901927948,0.005094008520245552,XArbitraryCorrectedZVertical,-0.5115781445648633,0.5073090792337981,-0.4643292889803756,0.5150957304477437,0.04754405096173286,0.9981403350830078,0.0381494015455246,5.488944053649902,38.07659912109375,-19.6210994720459,1,11237.662025875,walking,0,2016-03-02 02:48:24.219,2016-03-02 02:47:07.556,54,34.89709,1,2,2016-03-02 02:48:26.840,11243.81524725,0,0.04205322,97.3904,192.168.1.101,100.78.239.175,2,1,0.35,0
2016-03-02 02:48:31.284,46,234B9614-18C8-49ED-8B56-CAB6C4F40872,my_iOS_device_1,1456908511.000027,40.79918932639136,-96.68574225166503,366.0537,0,305.859375,4,10,-9999,1456908511.282915,11.78324508666992,41.44033813476562,-6.6783447265625,210.9651641845703,207.6880340576172,25,11244.70655825,0.0464019775390625,1.0147705078125,0.0481719970703125,11244.69407625,-0.04233414132011758,0.04884929861088744,-0.01342872348061555,11244.65906525,0.7602826671732824,2.276752397892072,-1.509594127671045,-0.03234417736530304,0.02154247462749481,-0.01723723113536835,-0.002401614794507623,0.01009675767272711,0.008674243465065956,XArbitraryCorrectedZVertical,-0.5120246393230475,0.5076132368635603,-0.4644026169312163,0.5142856986874398,0.04654529318213463,0.9981277585029602,0.03968085721135139,5.473543167114258,38.10625839233398,-19.56775093078613,1,11237.662025875,walking,0,2016-03-02 02:48:24.219,2016-03-02 02:47:07.556,54,34.89709,1,2,2016-03-02 02:48:26.840,11243.81524725,0,0.04205322,97.3904,192.168.1.101,100.78.239.175,2,1,0.35,0
2016-03-02 02:48:31.314,47,234B9614-18C8-49ED-8B56-CAB6C4F40872,my_iOS_device_1,1456908511.000027,40.79918932639136,-96.68574225166503,366.0537,0,305.859375,4,10,-9999,1456908511.282915,11.78324508666992,41.44033813476562,-6.6783447265625,210.9651641845703,207.6880340576172,25,11244.73684025,0.0412750244140625,1.014663696289062,0.04669189453125,11244.72909225,-0.04868764473271962,0.04777524574325848,-0.0156519303586137,11244.69407625,0.7829403629090493,2.3000937795084,-1.508703705561275,-0.02290652692317963,0.0205131359398365,-0.007507335860282183,0.00155187863856554,0.01868127845227718,0.0145291006192565,XArbitraryCorrectedZVertical,-0.5123393846016,0.5081167655400493,-0.4642365204219606,0.5136245327762985,0.04626916721463203,0.9980728626251221,0.04134858399629593,5.466756343841553,38.14739227294922,-19.48934173583984,1,11237.662025875,walking,0,2016-03-02 02:48:24.219,2016-03-02 02:47:07.556,54,34.89709,1,2,2016-03-02 02:48:26.840,11243.81524725,0,0.04205322,97.3904,192.168.1.101,100.78.239.175,2,1,0.35,0
2016-03-02 02:48:31.343,48,234B9614-18C8-49ED-8B56-CAB6C4F40872,my_iOS_device_1,1456908511.000027,40.79918932639136,-96.68574225166503,366.0537,0,305.859375,4,10,-9999,1456908511.282915,11.78324508666992,41.44033813476562,-6.6783447265625,210.9651641845703,207.6880340576172,25,11244.76713525,0.0555267333984375,1.01190185546875,0.046173095703125,11244.72909225,-0.04868764473271962,0.04777524574325848,-0.0156519303586137,11244.72909225,0.8016471472639694,2.319507616747724,-1.508201208458437,-0.02926165424287319,0.01943952590227127,-0.009730925783514977,-0.003070033388212323,0.01595074497163296,0.002310975920408964,XArbitraryCorrectedZVertical,-0.5125799210588691,0.5084801031556349,-0.4642282067535888,0.5130321444865359,0.04582516103982925,0.998041570186615,0.04258038103580475,5.469387054443359,38.17856597900391,-19.42746353149414,1,11244.74823125,stationary,1,2016-03-02 02:48:31.329,2016-03-02 02:47:07.556,54,34.89709,1,2,2016-03-02 02:48:26.840,11243.81524725,0,0.04205322,97.3904,192.168.1.101,100.78.239.175,2,1,0.35,0
2016-03-02 02:48:31.386,49,234B9614-18C8-49ED-8B56-CAB6C4F40872,my_iOS_device_1,1456908511.000027,40.79918932639136,-96.68574225166503,366.0537,0,305.859375,4,10,-9999,1456908511.343667,11.33228015899658,41.405517578125,-6.5130615234375,211.1459655761719,207.8688354492188,25,11244.79742425,0.0507354736328125,1.012191772460938,0.0552520751953125,11244.76410325,-0.04651636949597802,0.04776805520831526,-0.01881762994639089,11244.76410325,0.8189098879537968,2.337456730202889,-1.507705105064752,-0.02709109708666801,0.01943258941173553,-0.01289679855108261,0.005950940307229757,0.01473067980259657,0.002113177208229899,XArbitraryCorrectedZVertical,-0.512799841607905,0.5088281285103645,-0.4642245135338888,0.5124703495010804,0.0454101450741291,0.9980103969573975,0.04373948276042938,5.465053081512451,38.19309234619141,-19.40011215209961,1,11244.74823125,stationary,1,2016-03-02 02:48:31.329,2016-03-02 02:47:07.556,54,34.89709,1,2,2016-03-02 02:48:26.840,11243.81524725,0,0.04205322,97.3904,192.168.1.101,100.78.239.175,2,1,0.35,0
2016-03-02 02:48:31.403,50,234B9614-18C8-49ED-8B56-CAB6C4F40872,my_iOS_device_1,1456908511.000027,40.79918932639136,-96.68574225166503,366.0537,0,305.859375,4,10,-9999,1456908511.343667,11.33228015899658,41.405517578125,-6.5130615234375,211.1459655761719,207.8688354492188,25,11244.82773725,0.0411224365234375,1.013275146484375,0.0493011474609375,11244.79911425,-0.0423682297820706,0.04247475622567377,-0.01129446618302605,11244.79911425,0.8307548225364089,2.349757264457118,-1.506697408470336,-0.02294457145035267,0.01413956191390753,-0.005371629260480404,0.005151099059730768,0.01424540486186743,0.01025082916021347,XArbitraryCorrectedZVertical,-0.5129569380816762,0.5092895078407347,-0.4639810670546334,0.5120751373500232,0.04558437317609787,0.9979463815689087,0.04500124603509903,5.466311931610107,38.20660018920898,-19.37314224243164,1,11244.74823125,stationary,1,2016-03-02 02:48:31.329,2016-03-02 02:47:07.556,54,34.89709,1,2,2016-03-02 02:48:26.840,11243.81524725,0,0.04205322,97.3904,192.168.1.101,100.78.239.175,2,1,0.35,0
2016-03-02 02:48:31.433,51,234B9614-18C8-49ED-8B56-CAB6C4F40872,my_iOS_device_1,1456908511.000027,40.79918932639136,-96.68574225166503,366.0537,0,305.859375,4,10,-9999,1456908511.403679,10.77724838256836,41.892822265625,-6.57916259765625,211.2698669433594,207.9927368164062,25,11244.85801625,0.0331878662109375,1.017257690429688,0.049957275390625,11244.83413025,-0.04221376643884601,0.0530794636863693,-0.02195510002661324,11244.83413025,0.8482632114662932,2.367893679277591,-1.506285193664473,-0.02279178239405155,0.0247446708381176,-0.01603267155587673,-0.003925778903067112,0.01535526849329472,0.003186349757015705,XArbitraryCorrectedZVertical,-0.5132097971639712,0.5095813015611452,-0.4640046446117093,0.5115098151286188,0.04504821449518204,0.9979198575019836,0.04611479863524437,5.481019020080566,38.24705505371094,-19.28898620605469,1,11244.74823125,stationary,1,2016-03-02 02:48:31.329,2016-03-02 02:47:07.556,54,34.89709,1,2,2016-03-02 02:48:26.840,11243.81524725,0,0.04205322,97.3904,192.168.1.101,100.78.239.175,2,1,0.35,0
2016-03-02 02:48:31.466,52,234B9614-18C8-49ED-8B56-CAB6C4F40872,my_iOS_device_1,1456908511.000027,40.79918932639136,-96.68574225166503,366.0537,0,305.859375,4,10,-9999,1456908511.403679,10.77724838256836,41.892822265625,-6.57916259765625,211.2698669433594,207.9927368164062,25,11244.88830325,0.0476531982421875,1.013046264648438,0.0558624267578125,11244.86914125,-0.03589515043652401,0.04671557394551595,-0.01759710321880758,11244.86914125,0.8704860547558575,2.390933009136275,-1.506379823625877,-0.0164740327745676,0.01838131807744503,-0.01167770754545927,-0.00286334240809083,0.01588322967290878,0.007814569398760796,XArbitraryCorrectedZVertical,-0.5135252665478647,0.5097327220008975,-0.4642729638533856,0.5107983631270577,0.04390948638319969,0.9979259967803955,0.04707129299640656,5.469119071960449,38.25954818725586,-19.2675724029541,1,11244.74823125,stationary,1,2016-03-02 02:48:31.329,2016-03-02 02:47:07.556,54,34.89709,1,2,2016-03-02 02:48:26.840,11243.81524725,0,0.04205322,97.3904,192.168.1.101,100.78.239.175,2,1,0.35,0
2016-03-02 02:48:31.494,53,234B9614-18C8-49ED-8B56-CAB6C4F40872,my_iOS_device_1,1456908511.000027,40.79918932639136,-96.68574225166503,366.0537,0,305.859375,4,10,-9999,1456908511.463153,10.81193733215332,41.649169921875,-6.6121826171875,211.36083984375,208.0837097167969,25,11244.91860925,0.0409698486328125,1.010330200195312,0.05108642578125,11244.90415325,-0.02741111815185858,0.05204482560287351,-0.01534513420103657,11244.90415325,0.8819542013007711,2.403048586519758,-1.506142636599038,-0.007991444319486618,0.02371085435152054,-0.009425603784620762,-0.002922205021604896,0.01415902376174927,0.005661441013216972,XArbitraryCorrectedZVertical,-0.5136395607900501,0.5099625679853689,-0.4643709263774807,0.5103647946131095,0.04349532350897789,0.9979106783866882,0.04777484014630318,5.453627586364746,38.27250289916992,-19.24622344970703,1,11244.74823125,stationary,1,2016-03-02 02:48:31.329,2016-03-02 02:47:07.556,54,34.89709,1,2,2016-03-02 02:48:26.840,11243.81524725,0,0.04205322,97.3904,192.168.1.101,100.78.239.175,2,1,0.35,0
2016-03-02 02:48:31.546,54,234B9614-18C8-49ED-8B56-CAB6C4F40872,my_iOS_device_1,1456908511.000027,40.79918932639136,-96.68574225166503,366.0537,0,305.859375,4,10,-9999,1456908511.510351,11.47104072570801,41.892822265625,-6.314697265625,211.4999847412109,208.2228546142578,25,11244.94891425,0.0383758544921875,1.010238647460938,0.05181884765625,11244.93916825,-0.02742177079621889,0.0573647561964158,-0.01428226660998595,11244.90415325,0.8819542013007711,2.403048586519758,-1.506142636599038,-0.007991444319486618,0.02371085435152054,-0.009425603784620762,-0.002922205021604896,0.01415902376174927,0.005661441013216972,XArbitraryCorrectedZVertical,-0.5136395607900501,0.5099625679853689,-0.4643709263774807,0.5103647946131095,0.04349532350897789,0.9979106783866882,0.04777484014630318,5.453627586364746,38.27250289916992,-19.24622344970703,1,11244.74823125,stationary,1,2016-03-02 02:48:31.329,2016-03-02 02:47:07.556,54,34.89709,1,2,2016-03-02 02:48:26.840,11243.81524725,0,0.04205322,97.3904,192.168.1.101,100.78.239.175,2,1,0.35,0
2016-03-02 02:48:31.553,55,234B9614-18C8-49ED-8B56-CAB6C4F40872,my_iOS_device_1,1456908511.000027,40.79918932639136,-96.68574225166503,366.0537,0,305.859375,4,10,-9999,1456908511.510351,11.47104072570801,41.892822265625,-6.314697265625,211.4999847412109,208.2228546142578,25,11244.97920925,0.036712646484375,1.022933959960938,0.0495147705078125,11244.93916825,-0.02742177079621889,0.0573647561964158,-0.01428226660998595,11244.93916825,0.8890323419784136,2.411060991187807,-1.506189941433086,-0.00800221785902977,0.02903107367455959,-0.008363489992916584,-0.001041678944602609,0.01185189187526703,-0.003744602203369141,XArbitraryCorrectedZVertical,-0.5135829541376086,0.5101723932263498,-0.4646400853469062,0.5099669298079967,0.04307964444160461,0.9979137182235718,0.04808664321899414,5.449236392974854,38.29211044311523,-19.20842933654785,1,11244.74823125,stationary,1,2016-03-02 02:48:31.329,2016-03-02 02:47:07.556,54,34.89709,1,2,2016-03-02 02:48:26.840,11243.81524725,0,0.04205322,97.3904,192.168.1.101,100.78.239.175,2,1,0.35,0
2016-03-02 02:48:31.584,56,234B9614-18C8-49ED-8B56-CAB6C4F40872,my_iOS_device_1,1456908511.000027,40.79918932639136,-96.68574225166503,366.0537,0,305.859375,4,10,-9999,1456908511.573232,11.57510852813721,42.34532165527344,-5.5545654296875,211.6861572265625,208.4090270996094,25,11245.00949125,0.0467529296875,1.007843017578125,0.0481719970703125,11245.00917125,-0.02633440212313954,0.04991589462746417,-0.01639415335441878,11244.97415725,0.9035005339129126,2.426480216057149,-1.506074729881183,-0.01757760345935822,0.02689741179347038,-0.008502623066306114,-0.003742707427591085,0.023654380813241,0.001384714269079268,XArbitraryCorrectedZVertical,-0.5136939989112326,0.5104257592678674,-0.4648715067662507,0.5093903237746791,0.04240847751498222,0.9979062676429749,0.04883196204900742,5.449962615966797,38.31143569946289,-19.16964530944824,1,11244.74823125,stationary,1,2016-03-02 02:48:31.329,2016-03-02 02:47:07.556,54,34.89709,1,2,2016-03-02 02:48:26.840,11243.81524725,0,0.04205322,97.3904,192.168.1.101,100.78.239.175,2,1,0.35,0
2016-03-02 02:48:31.625,57,234B9614-18C8-49ED-8B56-CAB6C4F40872,my_iOS_device_1,1456908511.000027,40.79918932639136,-96.68574225166503,366.0537,0,305.859375,4,10,-9999,1456908511.573232,11.57510852813721,42.34532165527344,-5.5545654296875,211.6861572265625,208.4090270996094,25,11245.03980725,0.0386199951171875,1.0167236328125,0.05023193359375,11245.00917125,-0.02633440212313954,0.04991589462746417,-0.01639415335441878,11245.00917125,0.9106565883284351,2.434228079776893,-1.506195430539035,-0.00691577885299921,0.02158278226852417,-0.01047709677368402,0.00239144591614604,0.0123550770804286,0.000859241234138608,XArbitraryCorrectedZVertical,-0.5137160221568168,0.510518958373781,-0.4650829045888549,0.5090816570841166,0.04195059463381767,0.9979140758514404,0.04906751587986946,5.444878578186035,38.31912231445312,-19.15572547912598,1,11244.74823125,stationary,1,2016-03-02 02:48:31.329,2016-03-02 02:47:07.556,54,34.89709,1,2,2016-03-02 02:48:26.840,11243.81524725,0,0.04205322,97.3904,192.168.1.101,100.78.239.175,2,1,0.35,0
2016-03-02 02:48:31.643,58,234B9614-18C8-49ED-8B56-CAB6C4F40872,my_iOS_device_1,1456908511.000027,40.79918932639136,-96.68574225166503,366.0537,0,305.859375,4,10,-9999,1456908511.633816,11.12414360046387,42.72821044921875,-5.1910400390625,211.8925018310547,208.6153717041016,25,11245.07010025,0.0360107421875,1.009918212890625,0.053375244140625,11245.04419325,-0.02638899692548616,0.05524461365260372,-0.01213469350694605,11245.04419325,0.9184233541224701,2.44285048461232,-1.506202425491648,-0.00697032455354929,0.02691172249615192,-0.006217826157808304,-0.002901475643739104,0.01880909316241741,0.0008098750258795917,XArbitraryCorrectedZVertical,-0.5136931563354203,0.5107155474721976,-0.4653239093036195,0.5086871633280253,0.04152147099375725,0.9979145526885986,0.04942205920815468,5.446652412414551,38.32609939575195,-19.1412467956543,1,11245.06903125,unknown,1,2016-03-02 02:48:31.652,2016-03-02 02:47:07.556,54,34.89709,1,2,2016-03-02 02:48:26.840,11243.81524725,0,0.04205322,97.3904,192.168.1.101,100.78.239.175,2,1,0.35,0
2016-03-02 02:48:31.674,59,234B9614-18C8-49ED-8B56-CAB6C4F40872,my_iOS_device_1,1456908511.000027,40.79918932639136,-96.68574225166503,366.0537,0,305.859375,4,10,-9999,1456908511.633816,11.12414360046387,42.72821044921875,-5.1910400390625,211.8925018310547,208.6153717041016,25,11245.10040325,0.0362548828125,1.011322021484375,0.0530853271484375,11245.07921425,-0.02743961397552242,0.05311408478054033,-0.01321460532897318,11245.07921425,0.9293448563189365,2.454644136618689,-1.506303126432368,-0.007998728193342686,0.02472773008048534,-0.007294725626707077,-0.004861258435994387,0.01199717819690704,0.003544642357155681,XArbitraryCorrectedZVertical,-0.5137344254551537,0.5108739971284914,-0.4656127884736808,0.5082218318509879,0.0408720001578331,0.9979210495948792,0.0498306006193161,5.439740180969238,38.33737182617188,-19.12063598632812,1,11245.06903125,unknown,1,2016-03-02 02:48:31.652,2016-03-02 02:47:07.556,54,34.89709,1,2,2016-03-02 02:48:26.840,11243.81524725,0,0.04205322,97.3904,192.168.1.101,100.78.239.175,2,1,0.35,0
2016-03-02 02:48:31.707,60,234B9614-18C8-49ED-8B56-CAB6C4F40872,my_iOS_device_1,1456908511.000027,40.79918932639136,-96.68574225166503,366.0537,0,305.859375,4,10,-9999,1456908511.687227,11.50572967529297,42.55415344238281,-5.157958984375,212.1103210449219,208.8331909179688,25,11245.13067625,0.03936767578125,1.013351440429688,0.05426025390625,11245.11421325,-0.02954004912726792,0.04991642725968218,-0.01537496160524546,11245.11421325,0.9403959241420424,2.466644230307372,-1.506285068670697,-0.01009981799870729,0.02153045311570168,-0.009456603787839413,-0.001708141528069973,0.01718633063137531,0.001075321342796087,XArbitraryCorrectedZVertical,-0.5137640278039537,0.5110893202177657,-0.4658820023084976,0.5077284613048736,0.04028236120939255,0.9979198575019836,0.05033154040575027,5.4365553855896,38.34334182739258,-19.10956192016602,1,11245.06903125,unknown,1,2016-03-02 02:48:31.652,2016-03-02 02:47:07.556,54,34.89709,1,2,2016-03-02 02:48:26.840,11245.12826625,0,0.1858521,97.38873,192.168.1.101,100.78.239.175,2,1,0.35,0
2016-03-02 02:48:31.735,61,234B9614-18C8-49ED-8B56-CAB6C4F40872,my_iOS_device_1,1456908511.000027,40.79918932639136,-96.68574225166503,366.0537,0,305.859375,4,10,-9999,1456908511.687227,11.50572967529297,42.55415344238281,-5.157958984375,212.1103210449219,208.8331909179688,25,11245.16099725,0.035614013671875,1.014862060546875,0.061431884765625,11245.14924525,-0.03379871002641363,0.04459623035003089,-0.01543408378144522,11245.11421325,0.9403959241420424,2.466644230307372,-1.506285068670697,-0.01009981799870729,0.02153045311570168,-0.009456603787839413,-0.001708141528069973,0.01718633063137531,0.001075321342796087,XArbitraryCorrectedZVertical,-0.5137640278039537,0.5110893202177657,-0.4658820023084976,0.5077284613048736,0.04028236120939255,0.9979198575019836,0.05033154040575027,5.4365553855896,38.34334182739258,-19.10956192016602,1,11245.06903125,unknown,1,2016-03-02 02:48:31.652,2016-03-02 02:47:07.556,54,34.89709,1,2,2016-03-02 02:48:26.840,11245.12826625,0,0.1858521,97.38873,192.168.1.101,100.78.239.175,2,1,0.35,0
2016-03-02 02:48:31.785,62,234B9614-18C8-49ED-8B56-CAB6C4F40872,my_iOS_device_1,1456908511.000027,40.79918932639136,-96.68574225166503,366.0537,0,305.859375,4,10,-9999,1456908511.746797,11.40166187286377,42.24087524414062,-5.587646484375,212.291015625,209.0138854980469,25,11245.19128425,0.0406646728515625,1.010604858398438,0.05902099609375,11245.18425525,-0.03807761094984394,0.0318351613546982,-0.01442394677997816,11245.14924525,0.9516241784236753,2.478494580680518,-1.506008602266111,-0.01435909699648619,0.01621048152446747,-0.009516150690615177,-0.001400777604430914,0.01551046594977379,0.003298510098829865,XArbitraryCorrectedZVertical,-0.5138844469161377,0.5113063315220886,-0.4659783085958974,0.5072995431510008,0.03985292464494705,0.9979020357131958,0.05102277919650078,5.434158325195312,38.36629486083984,-19.06412506103516,1,11245.06903125,unknown,1,2016-03-02 02:48:31.652,2016-03-02 02:47:07.556,54,34.89709,1,2,2016-03-02 02:48:26.840,11245.12826625,0,0.1858521,97.38873,192.168.1.101,100.78.239.175,2,1,0.35,0
2016-03-02 02:48:31.795,63,234B9614-18C8-49ED-8B56-CAB6C4F40872,my_iOS_device_1,1456908511.000027,40.79918932639136,-96.68574225166503,366.0537,0,305.859375,4,10,-9999,1456908511.746797,11.40166187286377,42.24087524414062,-5.587646484375,212.291015625,209.0138854980469,25,11245.22157625,0.0444793701171875,1.013137817382812,0.0565338134765625,11245.21926725,-0.03605920115967289,0.02335006380559675,-0.006930077788604194,11245.18425525,0.9677093166029713,2.494957700385325,-1.505481749578976,-0.0186405424028635,0.003449812065809965,-0.008506867103278637,-0.001436755526810884,0.0118368286639452,0.007783949840813875,XArbitraryCorrectedZVertical,-0.514185857476762,0.5115258284912403,-0.4659434104754002,0.5068046655189535,0.0393243283033371,0.99786776304245,0.05209153890609741,5.429004669189453,38.37770843505859,-19.04261016845703,1,11245.06903125,unknown,1,2016-03-02 02:48:31.652,2016-03-02 02:47:07.556,54,34.89709,1,2,2016-03-02 02:48:26.840,11245.12826625,0,0.1858521,97.38873,192.168.1.101,100.78.239.175,2,1,0.35,0
2016-03-02 02:48:31.825,64,234B9614-18C8-49ED-8B56-CAB6C4F40872,my_iOS_device_1,1456908511.000027,40.79918932639136,-96.68574225166503,366.0537,0,305.859375,4,10,-9999,1456908511.807103,11.40165901184082,42.38008117675781,-5.85211181640625,212.4519500732422,209.1748199462891,25,11245.25189225,0.03692626953125,1.01190185546875,0.0546112060546875,11245.21926725,-0.03605920115967289,0.02335006380559675,-0.006930077788604194,11245.21926725,0.9758526429238212,2.50302378163683,-1.504820979606875,-0.01662334986031055,-0.005035110749304295,-0.001012631342746317,0.001994402147829533,0.01461149659007788,0.003734686644747853,XArbitraryCorrectedZVertical,-0.5144229781189549,0.5117003298244085,-0.4657188721183061,0.5065942204503112,0.03929588198661804,0.9978244304656982,0.05293645709753036,5.421256065368652,38.40142822265625,-18.9969367980957,1,11245.06903125,unknown,1,2016-03-02 02:48:31.652,2016-03-02 02:47:07.556,54,34.89709,1,2,2016-03-02 02:48:26.840,11245.12826625,0,0.1858521,97.38873,192.168.1.101,100.78.239.175,2,1,0.35,0
2016-03-02 02:48:31.866,65,234B9614-18C8-49ED-8B56-CAB6C4F40872,my_iOS_device_1,1456908511.000027,40.79918932639136,-96.68574225166503,366.0537,0,305.859375,4,10,-9999,1456908511.863343,11.47103691101074,42.10162353515625,-5.85211181640625,212.5993499755859,209.3222198486328,25,11245.28218825,0.03204345703125,1.011337280273438,0.058258056640625,11245.25426225,-0.0211604127573336,0.01378771759555823,-0.00777456617026832,11245.25426225,0.9791549737876152,2.505933031999345,-1.504451269254411,-0.00172517669852823,-0.01459726504981518,-0.001856620074249804,-0.00243445998057723,0.01410188153386116,0.001263804966583848,XArbitraryCorrectedZVertical,-0.5146096083867518,0.5117134466467408,-0.4654990875623283,0.5065934256932041,0.03936072811484337,0.9977999925613403,0.0533474013209343,5.42174768447876,38.40895843505859,-18.9815673828125,1,11245.06903125,unknown,1,2016-03-02 02:48:31.652,2016-03-02 02:47:07.556,54,34.89709,1,2,2016-03-02 02:48:26.840,11245.12826625,0,0.1858521,97.38873,192.168.1.101,100.78.239.175,2,1,0.35,0
2016-03-02 02:48:31.886,66,234B9614-18C8-49ED-8B56-CAB6C4F40872,my_iOS_device_1,1456908511.000027,40.79918932639136,-96.68574225166503,366.0537,0,305.859375,4,10,-9999,1456908511.863343,11.47103691101074,42.10162353515625,-5.85211181640625,212.5993499755859,209.3222198486328,25,11245.31248425,0.030029296875,1.01507568359375,0.0614013671875,11245.28926825,-0.03182983503251804,0.02867611966964621,-0.004739894108123028,11245.25426225,0.9791549737876152,2.505933031999345,-1.504451269254411,-0.00172517669852823,-0.01459726504981518,-0.001856620074249804,-0.00243445998057723,0.01410188153386116,0.001263804966583848,XArbitraryCorrectedZVertical,-0.5146096083867518,0.5117134466467408,-0.4654990875623283,0.5065934256932041,0.03936072811484337,0.9977999925613403,0.0533474013209343,5.42174768447876,38.40895843505859,-18.9815673828125,1,11245.06903125,unknown,1,2016-03-02 02:48:31.652,2016-03-02 02:47:07.556,54,34.89709,1,2,2016-03-02 02:48:26.840,11245.12826625,0,0.1858521,97.38873,192.168.1.101,100.78.239.175,2,1,0.35,0
2016-03-02 02:48:31.917,67,234B9614-18C8-49ED-8B56-CAB6C4F40872,my_iOS_device_1,1456908511.000027,40.79918932639136,-96.68574225166503,366.0537,0,305.859375,4,10,-9999,1456908511.863343,11.47103691101074,42.10162353515625,-5.85211181640625,212.5993499755859,209.3222198486328,25,11245.34278125,0.0323333740234375,1.01593017578125,0.0579376220703125,11245.32429725,-0.02752163933709686,0.04143132971058072,-0.007881092613871489,11245.28926825,0.9851928528768999,2.511666875462224,-1.504363600595786,-0.01239513047039509,0.0002914465439971536,0.001176763908006251,-0.007062272168695927,0.01354312244802713,0.00461515923961997,XArbitraryCorrectedZVertical,-0.5148245453726302,0.5116416092084026,-0.4654142504630913,0.5065255439505189,0.03910572826862335,0.9977941513061523,0.05364289879798889,5.39805793762207,38.42108917236328,-18.96376609802246,1,11245.06903125,unknown,1,2016-03-02 02:48:31.652,2016-03-02 02:47:07.556,54,34.89709,1,2,2016-03-02 02:48:26.840,11245.12826625,0,0.1858521,97.38873,192.168.1.101,100.78.239.175,2,1,0.35,0
2016-03-02 02:48:31.947,68,234B9614-18C8-49ED-8B56-CAB6C4F40872,my_iOS_device_1,1456908511.000027,40.79918932639136,-96.68574225166503,366.0537,0,305.859375,4,10,-9999,1456908511.922104,11.67917633056641,41.68394470214844,-5.5216064453125,212.7738189697266,209.4966888427734,25,11245.37307625,0.043975830078125,1.008056640625,0.05902099609375,11245.35932125,-0.01471130186159771,0.04462232932871367,-0.01089392675507813,11245.32429725,1.001759522958138,2.52865448829536,-1.504123453243183,-0.008089041337370872,0.01304728072136641,-0.001967739779502153,-0.00829741358757019,0.02291273139417171,0.002602953696623445,XArbitraryCorrectedZVertical,-0.5151232449797165,0.511757520724707,-0.4655093760263457,0.5060170978285421,0.03832671046257019,0.9977781772613525,0.0544954352080822,5.385472297668457,38.43382263183594,-18.94153594970703,1,11245.06903125,unknown,1,2016-03-02 02:48:31.652,2016-03-02 02:47:07.556,54,34.89709,1,2,2016-03-02 02:48:26.840,11245.12826625,0,0.1858521,97.38873,192.168.1.101,100.78.239.175,2,1,0.35,0
2016-03-02 02:48:31.975,69,234B9614-18C8-49ED-8B56-CAB6C4F40872,my_iOS_device_1,1456908511.000027,40.79918932639136,-96.68574225166503,366.0537,0,305.859375,4,10,-9999,1456908511.922104,11.67917633056641,41.68394470214844,-5.5216064453125,212.7738189697266,209.4966888427734,25,11245.40336325,0.0427703857421875,1.013565063476562,0.0553741455078125,11245.35932125,-0.01471130186159771,0.04462232932871367,-0.01089392675507813,11245.35932125,1.007327113758795,2.534815214127624,-1.504470785955477,0.004720651544630527,0.0162386130541563,-0.004982068203389645,-0.004391144961118698,0.01388696487993002,0.002561015775427222,XArbitraryCorrectedZVertical,-0.5150923660433251,0.5117643642359825,-0.4658109735037033,0.5057640031729739,0.0377926342189312,0.9978012442588806,0.05444582179188728,5.372447967529297,38.44419097900391,-18.9241828918457,1,11245.06903125,unknown,1,2016-03-02 02:48:31.652,2016-03-02 02:47:07.556,54,34.89709,1,2,2016-03-02 02:48:26.840,11245.12826625,0,0.1858521,97.38873,192.168.1.101,100.78.239.175,2,1,0.35,0
2016-03-02 02:48:32.027,70,234B9614-18C8-49ED-8B56-CAB6C4F40872,my_iOS_device_1,1456908511.000027,40.79918932639136,-96.68574225166503,366.0537,0,305.859375,4,10,-9999,1456908511.979716,11.85262680053711,41.99722290039062,-5.4224853515625,212.975341796875,209.6982116699219,25,11245.43366925,0.0372467041015625,1.019866943359375,0.06207275390625,11245.42934325,-0.02120142543812082,0.03719424041626466,-0.003524161070501856,11245.39432025,1.007255489817577,2.535152513698859,-1.504179747166624,-0.005961370654404163,0.01517611090093851,-0.001938196830451488,0.007516155019402504,0.01302128657698631,-0.0001775244018062949,XArbitraryCorrectedZVertical,-0.515013472486655,0.5119665145455143,-0.4658127981460555,0.5056380604985019,0.03793977573513985,0.9977819323539734,0.0546971783041954,5.368191719055176,38.44369888305664,-18.9263858795166,1,11245.41723725,walking,0,2016-03-02 02:48:31.975,2016-03-02 02:47:07.556,55,35.09549,1,2,2016-03-02 02:48:29.431,11245.12826625,0,0.1858521,97.38873,192.168.1.101,100.78.239.175,2,1,0.35,0
2016-03-02 02:48:32.038,71,234B9614-18C8-49ED-8B56-CAB6C4F40872,my_iOS_device_1,1456908511.000027,40.79918932639136,-96.68574225166503,366.0537,0,305.859375,4,10,-9999,1456908511.979716,11.85262680053711,41.99722290039062,-5.4224853515625,212.975341796875,209.6982116699219,25,11245.46396625,0.03802490234375,1.013900756835938,0.047332763671875,11245.42934325,-0.02120142543812082,0.03719424041626466,-0.003524161070501856,11245.42934325,1.008799331795763,2.537058065078437,-1.503921584278811,-0.001771071110852063,0.00881078839302063,0.002389138098806143,-0.001376053085550666,0.0185774452984333,0.007518690545111895,XArbitraryCorrectedZVertical,-0.514980954842357,0.512137941248295,-0.46582173063763,0.5054893278293471,0.03798188641667366,0.9977647066116333,0.05498130992054939,5.388685703277588,38.44742584228516,-18.91299057006836,1,11245.41723725,walking,0,2016-03-02 02:48:31.975,2016-03-02 02:47:07.556,55,35.09549,1,2,2016-03-02 02:48:29.431,11245.12826625,0,0.1858521,97.38873,192.168.1.101,100.78.239.175,2,1,0.35,0
2016-03-02 02:48:32.068,72,234B9614-18C8-49ED-8B56-CAB6C4F40872,my_iOS_device_1,1456908511.000027,40.79918932639136,-96.68574225166503,366.0537,0,305.859375,4,10,-9999,1456908512.039487,11.40165901184082,42.10163879394531,-5.5216064453125,213.1499176025391,209.8727874755859,25,11245.49426525,0.039886474609375,1.008560180664062,0.041351318359375,11245.46435925,-0.01059485376466223,0.03614468863066443,-0.001238103590777838,11245.46435925,1.007087780346507,2.535625566655389,-1.504143354487688,0.00883577112108469,0.007761523127555847,0.004674517549574375,9.032202797243372e-05,0.01612124405801296,-0.007412202190607786,XArbitraryCorrectedZVertical,-0.5148625908324213,0.5121415775355341,-0.4659640893451424,0.5054750088396883,0.03793457895517349,0.9977794885635376,0.05474496632814407,5.393432140350342,38.45430755615234,-18.89764213562012,1,11245.41723725,walking,0,2016-03-02 02:48:31.975,2016-03-02 02:47:07.556,55,35.09549,1,2,2016-03-02 02:48:29.431,11245.12826625,0,0.1858521,97.38873,192.168.1.101,100.78.239.175,2,1,0.35,0
2016-03-02 02:48:32.107,73,234B9614-18C8-49ED-8B56-CAB6C4F40872,my_iOS_device_1,1456908512.000028,40.79918932639136,-96.68574225166503,366.0884,0,327.65625,4,10,-9999,1456908512.099448,11.50572681427002,42.48452758789062,-5.6868896484375,213.2988586425781,210.021728515625,25,11245.52456125,0.0256195068359375,1.01324462890625,0.0500335693359375,11245.49937025,-0.004204865045126109,0.04678348455331297,-0.001150751907023239,11245.49937025,0.9976050812208409,2.526672393767738,-1.504807845235384,0.01522819511592388,0.01840045116841793,0.004761684685945511,0.001845777616836131,0.01073663029819727,-0.01251024752855301,XArbitraryCorrectedZVertical,-0.5144810299424885,0.512093792789403,-0.4662927707184619,0.5056088104370506,0.03804069757461548,0.9978235363960266,0.05386156588792801,5.397604942321777,38.44731903076172,-18.91065979003906,1,11245.41723725,walking,0,2016-03-02 02:48:31.975,2016-03-02 02:47:07.556,55,35.09549,1,2,2016-03-02 02:48:29.431,11245.12826625,0,0.1858521,97.38873,192.168.1.101,100.78.239.175,2,1,0.35,0
2016-03-02 02:48:32.129,74,234B9614-18C8-49ED-8B56-CAB6C4F40872,my_iOS_device_1,1456908512.000028,40.79918932639136,-96.68574225166503,366.0884,0,327.65625,4,10,-9999,1456908512.099448,11.50572681427002,42.48452758789062,-5.6868896484375,213.2988586425781,210.021728515625,25,11245.55485025,0.0264739990234375,1.012466430664062,0.0465240478515625,11245.53437725,-0.02952486910905447,0.07012103150178634,-0.01538508161738776,11245.53437725,0.9971644407811172,2.527344931456097,-1.50550445216521,-0.0100900512188673,0.04173826426267624,-0.009474148042500019,-0.01198433712124825,0.01537538599222898,-0.003285521641373634,XArbitraryCorrectedZVertical,-0.5141703150360619,0.5121410280334169,-0.466824349599313,0.5053864671335785,0.03760384395718575,0.9978692531585693,0.05331908911466599,5.415308952331543,38.42358016967773,-18.95380210876465,1,11245.41723725,walking,0,2016-03-02 02:48:31.975,2016-03-02 02:47:07.556,55,35.09549,1,2,2016-03-02 02:48:29.431,11245.12826625,0,0.1858521,97.38873,192.168.1.101,100.78.239.175,2,1,0.35,0
2016-03-02 02:48:32.162,75,234B9614-18C8-49ED-8B56-CAB6C4F40872,my_iOS_device_1,1456908512.000028,40.79918932639136,-96.68574225166503,366.0884,0,327.65625,4,10,-9999,1456908512.157407,11.64448738098145,42.41490173339844,-5.2242431640625,213.4740142822266,210.1968841552734,25,11245.58513825,0.0491180419921875,1.012435913085938,0.05902099609375,11245.56939225,-0.0433799646801917,0.05309917107843588,-0.01451183109595078,11245.53437725,0.9971644407811172,2.527344931456097,-1.50550445216521,-0.0100900512188673,0.04173826426267624,-0.009474148042500019,-0.01198433712124825,0.01537538599222898,-0.003285521641373634,XArbitraryCorrectedZVertical,-0.5141703150360619,0.5121410280334169,-0.466824349599313,0.5053864671335785,0.03760384395718575,0.9978692531585693,0.05331908911466599,5.415308952331543,38.42358016967773,-18.95380210876465,1,11245.41723725,walking,0,2016-03-02 02:48:31.975,2016-03-02 02:47:07.556,55,35.09549,1,2,2016-03-02 02:48:29.431,11245.12826625,0,0.1858521,97.38873,192.168.1.101,100.78.239.175,2,1,0.35,0
2016-03-02 02:48:32.189,76,234B9614-18C8-49ED-8B56-CAB6C4F40872,my_iOS_device_1,1456908512.000028,40.79918932639136,-96.68574225166503,366.0884,0,327.65625,4,10,-9999,1456908512.157407,11.64448738098145,42.41490173339844,-5.2242431640625,213.4740142822266,210.1968841552734,25,11245.61544925,0.0477752685546875,1.01068115234375,0.0516357421875,11245.60439325,-0.03180639921492535,0.04037059264840216,-0.005811283814661906,11245.56939225,1.009662081841937,2.540969701040321,-1.505826222929067,-0.02394334599375725,0.02471678331494331,-0.008603431284427643,0.0006305475253611803,0.01321821287274361,-0.0003084033087361604,XArbitraryCorrectedZVertical,-0.5141695190556214,0.5122601821703694,-0.4672847596783289,0.5048407321217716,0.03669245168566704,0.9978901743888855,0.05356157571077347,5.407341003417969,38.42661666870117,-18.94992256164551,1,11245.41723725,walking,0,2016-03-02 02:48:31.975,2016-03-02 02:47:07.556,55,35.09549,1,2,2016-03-02 02:48:29.431,11245.12826625,0,0.1858521,97.38873,192.168.1.101,100.78.239.175,2,1,0.35,0
2016-03-02 02:48:32.220,77,234B9614-18C8-49ED-8B56-CAB6C4F40872,my_iOS_device_1,1456908512.000028,40.79918932639136,-96.68574225166503,366.0884,0,327.65625,4,10,-9999,1456908512.216173,11.36697196960449,41.85798645019531,-5.1580810546875,213.6695861816406,210.3924560546875,25,11245.64576225,0.049163818359375,1.013687133789062,0.04168701171875,11245.63942125,-0.03508022314295976,0.02762204051019285,-0.0005235774703095782,11245.60439325,1.013013726460434,2.544932381206337,-1.504864682330301,-0.01237095519900322,0.01198822725564241,9.955748828360811e-05,0.01028321404010057,0.01540207397192717,0.005070056300610304,XArbitraryCorrectedZVertical,-0.5141642774460028,0.5127233404343173,-0.4671174595645658,0.5045306243849226,0.037019032984972,0.9978272914886475,0.05450025573372841,5.415194034576416,38.43709182739258,-18.9264087677002,1,11245.41723725,walking,0,2016-03-02 02:48:31.975,2016-03-02 02:47:07.556,55,35.09549,1,2,2016-03-02 02:48:29.431,11245.12826625,0,0.1858521,97.38873,192.168.1.101,100.78.239.175,2,1,0.35,0
2016-03-02 02:48:32.266,78,234B9614-18C8-49ED-8B56-CAB6C4F40872,my_iOS_device_1,1456908512.000028,40.79918932639136,-96.68574225166503,366.0884,0,327.65625,4,10,-9999,1456908512.216173,11.36697196960449,41.85798645019531,-5.1580810546875,213.6695861816406,210.3924560546875,25,11245.67606425,0.0329437255859375,1.011932373046875,0.05218505859375,11245.63942125,-0.03508022314295976,0.02762204051019285,-0.0005235774703095782,11245.63942125,1.003141636668114,2.535135443016712,-1.504381611154421,-0.01564264670014381,-0.0007603754638694227,0.005390509497374296,0.01001039240509272,0.0176770593971014,-0.0124320313334465,XArbitraryCorrectedZVertical,-0.5139509460266882,0.5129521814580549,-0.4669190625080235,0.5046989931457286,0.03782591223716736,0.9977953433990479,0.054531030356884,5.451151847839355,38.44560241699219,-18.89878845214844,1,11245.41723725,walking,0,2016-03-02 02:48:31.975,2016-03-02 02:47:07.556,55,35.09549,1,2,2016-03-02 02:48:29.431,11245.12826625,0,0.1858521,97.38873,192.168.1.101,100.78.239.175,2,1,0.35,0
2016-03-02 02:48:32.280,79,234B9614-18C8-49ED-8B56-CAB6C4F40872,my_iOS_device_1,1456908512.000028,40.79918932639136,-96.68574225166503,366.0884,0,327.65625,4,10,-9999,1456908512.27452,10.63849067687988,42.24087524414062,-5.2572021484375,213.793701171875,210.5165710449219,25,11245.70636625,0.028228759765625,1.015396118164062,0.0595245361328125,11245.67443425,-0.04132054220923343,0.021207550708628,-0.01126836720434327,11245.67443425,1.000639134134017,2.532374553782816,-1.504148371952087,-0.02188050374388695,-0.007174867205321789,-0.005352901294827461,0.0005105037707835436,0.01337432768195868,-0.006338436622172594,XArbitraryCorrectedZVertical,-0.5139676998846019,0.5129774128316429,-0.4667584179338177,0.5048048699129142,0.03810949251055717,0.9977798461914062,0.05461724475026131,5.466314792633057,38.44171524047852,-18.90231132507324,1,11245.41723725,walking,0,2016-03-02 02:48:31.975,2016-03-02 02:47:07.556,55,35.09549,1,2,2016-03-02 02:48:29.431,11245.12826625,0,0.1858521,97.38873,192.168.1.101,100.78.239.175,2,1,0.35,0
2016-03-02 02:48:32.311,80,234B9614-18C8-49ED-8B56-CAB6C4F40872,my_iOS_device_1,1456908512.000028,40.79918932639136,-96.68574225166503,366.0884,0,327.65625,4,10,-9999,1456908512.27452,10.63849067687988,42.24087524414062,-5.2572021484375,213.793701171875,210.5165710449219,25,11245.73666525,0.0250244140625,1.011260986328125,0.049072265625,11245.70944525,-0.04136554963165577,0.03929707241299122,-0.007015298943486729,11245.70944525,1.017086786754525,2.54886604642869,-1.503771164165866,-0.02192570827901363,0.0109149906784296,-0.001102550304494798,-0.009185117669403553,0.0176414642482996,0.003974098712205887,XArbitraryCorrectedZVertical,-0.5143617846377841,0.5130372045715237,-0.4667147799488654,0.5043828857197092,0.03741387650370598,0.9977546334266663,0.05555043742060661,5.464205741882324,38.4458122253418,-18.89459228515625,1,11245.71591325,stationary,1,2016-03-02 02:48:32.298,2016-03-02 02:47:07.556,55,35.09549,1,2,2016-03-02 02:48:29.431,11245.12826625,0,0.1858521,97.38873,192.168.1.101,100.78.239.175,2,1,0.35,0
2016-03-02 02:48:32.351,81,234B9614-18C8-49ED-8B56-CAB6C4F40872,my_iOS_device_1,1456908512.000028,40.79918932639136,-96.68574225166503,366.0884,0,327.65625,4,10,-9999,1456908512.333491,10.5691089630127,41.82319641113281,-5.7860107421875,213.8703765869141,210.5932464599609,25,11245.76696425,0.0414886474609375,1.013900756835938,0.0539398193359375,11245.74443225,-0.03488128500953084,0.05842549325859436,-0.01332539283032048,11245.74443225,1.029392939616368,2.562086391634602,-1.504034754181932,-0.01544022560119629,0.03004370629787445,-0.007416213396936655,-0.01150779705494642,0.01348871272057295,-0.006747866049408913,XArbitraryCorrectedZVertical,-0.5144144789118485,0.5131157859785873,-0.467106082985817,0.5038867345972347,0.036532212048769,0.9977722764015198,0.05582013353705406,5.441478252410889,38.46703720092773,-18.85791397094727,1,11245.71591325,stationary,1,2016-03-02 02:48:32.298,2016-03-02 02:47:07.556,55,35.09549,1,2,2016-03-02 02:48:29.431,11245.12826625,0,0.1858521,97.38873,192.168.1.101,100.78.239.175,2,1,0.35,0
2016-03-02 02:48:32.381,82,234B9614-18C8-49ED-8B56-CAB6C4F40872,my_iOS_device_1,1456908512.000028,40.79918932639136,-96.68574225166503,366.0884,0,327.65625,4,10,-9999,1456908512.333491,10.5691089630127,41.82319641113281,-5.7860107421875,213.8703765869141,210.5932464599609,25,11245.79726425,0.046600341796875,1.009689331054688,0.05621337890625,11245.77947425,-0.04559198628161152,0.05736875093805092,-0.00815166978062354,11245.74443225,1.029392939616368,2.562086391634602,-1.504034754181932,-0.01544022560119629,0.03004370629787445,-0.007416213396936655,-0.01150779705494642,0.01348871272057295,-0.006747866049408913,XArbitraryCorrectedZVertical,-0.5144144789118485,0.5131157859785873,-0.467106082985817,0.5038867345972347,0.036532212048769,0.9977722764015198,0.05582013353705406,5.441478252410889,38.46703720092773,-18.85791397094727,1,11245.71591325,stationary,1,2016-03-02 02:48:32.298,2016-03-02 02:47:07.556,55,35.09549,1,2,2016-03-02 02:48:29.431,11245.12826625,0,0.1858521,97.38873,192.168.1.101,100.78.239.175,2,1,0.35,0
2016-03-02 02:48:32.427,83,234B9614-18C8-49ED-8B56-CAB6C4F40872,my_iOS_device_1,1456908512.000028,40.79918932639136,-96.68574225166503,366.0884,0,327.65625,4,10,-9999,1456908512.394001,10.9506950378418,41.71878051757812,-5.4224853515625,213.9766845703125,210.6995544433594,25,11245.82755925,0.0432281494140625,1.012557983398438,0.0591888427734375,11245.81448425,-0.04132427063475954,0.05524221680762265,-0.009154349931038374,11245.77947425,1.034286407969244,2.567977702377735,-1.503669730995667,-0.02614942938089371,0.02898715808987617,-0.002242089714854956,0.01041359547525644,0.01754145137965679,-0.003071864368394017,XArbitraryCorrectedZVertical,-0.5143202000934298,0.5134636114864373,-0.4672601939821653,0.5034856130763793,0.03640037029981613,0.9977478384971619,0.0563402958214283,5.43241024017334,38.47677612304688,-18.84064865112305,1,11245.71591325,stationary,1,2016-03-02 02:48:32.298,2016-03-02 02:47:07.556,55,35.09549,1,2,2016-03-02 02:48:29.431,11245.12826625,0,0.1858521,97.38873,192.168.1.101,100.78.239.175,2,1,0.35,0
2016-03-02 02:48:32.432,84,234B9614-18C8-49ED-8B56-CAB6C4F40872,my_iOS_device_1,1456908512.000028,40.79918932639136,-96.68574225166503,366.0884,0,327.65625,4,10,-9999,1456908512.394001,10.9506950378418,41.71878051757812,-5.4224853515625,213.9766845703125,210.6995544433594,25,11245.85784725,0.052764892578125,1.006393432617188,0.0621795654296875,11245.84949525,-0.04786472795588514,0.03931571454062178,0.001416269067704139,11245.81448425,1.035256737347035,2.569829054305984,-1.502780497751478,-0.02188136987388134,0.02686070650815964,-0.003242252627387643,0.008801921270787716,0.0113911647349596,0.001256961841136217,XArbitraryCorrectedZVertical,-0.5142012515487853,0.513978515380592,-0.4671788055397987,0.5031571546616637,0.03677608072757721,0.997687816619873,0.05715368315577507,5.450625419616699,38.48305892944336,-18.82255363464355,1,11245.71591325,stationary,1,2016-03-02 02:48:32.298,2016-03-02 02:47:07.556,55,35.09549,1,2,2016-03-02 02:48:29.431,11245.12826625,0,0.1858521,97.38873,192.168.1.101,100.78.239.175,2,1,0.35,0
2016-03-02 02:48:32.472,85,234B9614-18C8-49ED-8B56-CAB6C4F40872,my_iOS_device_1,1456908512.000028,40.79918932639136,-96.68574225166503,366.0884,0,327.65625,4,10,-9999,1456908512.454113,11.05476570129395,41.75360107421875,-5.38946533203125,214.0961608886719,210.8190307617188,25,11245.88814325,0.05096435546875,1.012008666992188,0.0654296875,11245.84949525,-0.04786472795588514,0.03931571454062178,0.001416269067704139,11245.84949525,1.035213368923286,2.570393349912718,-1.501600372285656,-0.02842250466346741,0.01093434449285269,0.007331450469791889,0.01390444207936525,0.01073964219540358,0.003587444312870502,XArbitraryCorrectedZVertical,-0.5141438516197728,0.5145274893838532,-0.4669190189512729,0.5028958065558949,0.03738034889101982,0.9976069331169128,0.05816487595438957,5.489792823791504,38.49716567993164,-18.78227806091309,1,11245.71591325,stationary,1,2016-03-02 02:48:32.298,2016-03-02 02:47:07.556,55,35.09549,1,2,2016-03-02 02:48:29.431,11245.12826625,0,0.1858521,97.38873,192.168.1.101,100.78.239.175,2,1,0.35,0
2016-03-02 02:48:32.506,86,234B9614-18C8-49ED-8B56-CAB6C4F40872,my_iOS_device_1,1456908512.000028,40.79918932639136,-96.68574225166503,366.0884,0,327.65625,4,10,-9999,1456908512.454113,11.05476570129395,41.75360107421875,-5.38946533203125,214.0961608886719,210.8190307617188,25,11245.91845825,0.0483856201171875,1.019866943359375,0.0630340576171875,11245.88451125,-0.04891028499985025,0.02442145351213562,-0.0007227819198475053,11245.88451125,1.03196398253445,2.567114128809365,-1.500093118295247,-0.02946918457746506,-0.003959853667765856,0.005196500103920698,0.01449904590845108,0.01005153171718121,0.003592535620555282,XArbitraryCorrectedZVertical,-0.5141807904352,0.515043892487404,-0.4663615654670099,0.5028466901690871,0.03838791698217392,0.99750155210495,0.05930419266223907,5.506158828735352,38.50587463378906,-18.75962257385254,1,11245.71591325,stationary,1,2016-03-02 02:48:32.298,2016-03-02 02:47:07.556,55,35.09549,1,2,2016-03-02 02:48:29.431,11245.12826625,0,0.1858521,97.38873,192.168.1.101,100.78.239.175,2,1,0.35,0
2016-03-02 02:48:32.533,87,234B9614-18C8-49ED-8B56-CAB6C4F40872,my_iOS_device_1,1456908512.000028,40.79918932639136,-96.68574225166503,366.0884,0,327.65625,4,10,-9999,1456908512.509685,11.05476570129395,41.892822265625,-5.5877685546875,214.2073059082031,210.93017578125,25,11245.94875725,0.045562744140625,1.008773803710938,0.0592193603515625,11245.91952225,-0.03824752062739099,0.02016998314793313,-0.002697249552032252,11245.91952225,1.031837533402203,2.56671444206558,-1.498753605066982,-0.01880770921707153,-0.008211172185838223,0.003225339343771338,0.009247520938515663,0.02246089838445187,0.0026238770224154,XArbitraryCorrectedZVertical,-0.5143364588664286,0.5154251617890784,-0.4658178787418696,0.5028007692116823,0.03913810104131699,0.9974060654640198,0.06041017919778824,5.567379951477051,38.53498077392578,-18.6816291809082,1,11245.71591325,stationary,1,2016-03-02 02:48:32.298,2016-03-02 02:47:07.556,55,35.09549,1,2,2016-03-02 02:48:29.431,11245.12826625,0,0.1858521,97.38873,192.168.1.101,100.78.239.175,2,1,0.35,0
2016-03-02 02:48:32.557,88,234B9614-18C8-49ED-8B56-CAB6C4F40872,my_iOS_device_1,1456908512.000028,40.79918932639136,-96.68574225166503,366.0884,0,327.65625,4,10,-9999,1456908512.509685,11.05476570129395,41.892822265625,-5.5877685546875,214.2073059082031,210.93017578125,25,11245.97905325,0.0463714599609375,1.01318359375,0.06524658203125,11245.95453325,-0.03387647433024394,0.01908634290037988,-0.01115917759965002,11245.95453325,1.030135436338303,2.564704530016352,-1.498250608435972,-0.01443624310195446,-0.009294771589338779,-0.005234736949205399,0.006029678042978048,0.01140409056097269,-0.001532526570372283,XArbitraryCorrectedZVertical,-0.5144012232374279,0.5155262602531574,-0.4655513007745805,0.5028777613578843,0.03953306749463081,0.9973697066307068,0.06075188517570496,5.57874870300293,38.54206466674805,-18.66361045837402,1,11245.71591325,stationary,1,2016-03-02 02:48:32.298,2016-03-02 02:47:07.556,55,35.09549,1,2,2016-03-02 02:48:29.431,11245.12826625,0,0.1858521,97.38873,192.168.1.101,100.78.239.175,2,1,0.35,0
2016-03-02 02:48:32.585,89,234B9614-18C8-49ED-8B56-CAB6C4F40872,my_iOS_device_1,1456908512.000028,40.79918932639136,-96.68574225166503,366.0884,0,327.65625,4,10,-9999,1456908512.572124,11.36697006225586,41.3707275390625,-5.620849609375,214.3063812255859,211.0292510986328,25,11246.00934825,0.0438690185546875,1.015655517578125,0.0590972900390625,11245.98954325,-0.04124331053762113,0.02650990443897576,-0.01659868412613687,11245.95453325,1.030135436338303,2.564704530016352,-1.498250608435972,-0.01443624310195446,-0.009294771589338779,-0.005234736949205399,0.006029678042978048,0.01140409056097269,-0.001532526570372283,XArbitraryCorrectedZVertical,-0.5144012232374279,0.5155262602531574,-0.4655513007745805,0.5028777613578843,0.03953306749463081,0.9973697066307068,0.06075188517570496,5.57874870300293,38.54206466674805,-18.66361045837402,1,11245.71591325,stationary,1,2016-03-02 02:48:32.298,2016-03-02 02:47:07.556,55,35.09549,1,2,2016-03-02 02:48:29.431,11245.12826625,0,0.1858521,97.38873,192.168.1.101,100.78.239.175,2,1,0.35,0
2016-03-02 02:48:32.614,90,234B9614-18C8-49ED-8B56-CAB6C4F40872,my_iOS_device_1,1456908512.000028,40.79918932639136,-96.68574225166503,366.0884,0,327.65625,4,10,-9999,1456908512.572124,11.36697006225586,41.3707275390625,-5.620849609375,214.3063812255859,211.0292510986328,25,11246.03965125,0.0402679443359375,1.00775146484375,0.0610198974609375,11246.02456025,-0.03164181585955846,0.02544783579625216,-0.01859019598929812,11245.98954325,1.035632147099628,2.569993753193886,-1.49750678054,-0.02180378884077072,-0.001871023792773485,-0.01067246869206429,0.005980752408504486,0.02313125506043434,0.003632004605606198,XArbitraryCorrectedZVertical,-0.514640312694051,0.5156911657907874,-0.4652675462400615,0.5027266458934213,0.03961250931024551,0.997315526008606,0.06158405914902687,5.586304187774658,38.54829025268555,-18.64848518371582,1,11245.71591325,stationary,1,2016-03-02 02:48:32.298,2016-03-02 02:47:07.556,55,35.09549,1,2,2016-03-02 02:48:29.431,11245.12826625,0,0.1858521,97.38873,192.168.1.101,100.78.239.175,2,1,0.35,0
2016-03-02 02:48:32.665,91,234B9614-18C8-49ED-8B56-CAB6C4F40872,my_iOS_device_1,1456908512.000028,40.79918932639136,-96.68574225166503,366.0884,0,327.65625,4,10,-9999,1456908512.627302,11.2975902557373,41.78840637207031,-6.0174560546875,214.3807525634766,211.1036224365234,25,11246.06994825,0.0457611083984375,1.011062622070312,0.0626373291015625,11246.05957125,-0.0306284830647833,0.01695022139002733,-0.01537389634080943,11246.02456025,1.040702792366142,2.574999744824055,-1.497261265100924,-0.01220172643661499,-0.002933033742010593,-0.01266288198530674,0.005196805112063885,0.01542831491678953,-0.001502339378930628,XArbitraryCorrectedZVertical,-0.5148011949675642,0.5157264965646197,-0.4651949047248222,0.5025928879512762,0.03943515196442604,0.9972975254058838,0.06198817864060402,5.583217620849609,38.56573486328125,-18.61331558227539,1,11245.71591325,stationary,1,2016-03-02 02:48:32.298,2016-03-02 02:47:07.556,55,35.09549,1,2,2016-03-02 02:48:29.431,11245.12826625,0,0.1858521,97.38873,192.168.1.101,100.78.239.175,2,1,0.35,0
2016-03-02 02:48:32.684,92,234B9614-18C8-49ED-8B56-CAB6C4F40872,my_iOS_device_1,1456908512.000028,40.79918932639136,-96.68574225166503,366.0884,0,327.65625,4,10,-9999,1456908512.627302,11.2975902557373,41.78840637207031,-6.0174560546875,214.3807525634766,211.1036224365234,25,11246.10024825,0.0329437255859375,1.016128540039062,0.0664215087890625,11246.05957125,-0.0306284830647833,0.01695022139002733,-0.01537389634080943,11246.05957125,1.045518199910525,2.579528093301858,-1.497087562971436,-0.01115908194333315,-0.01149136293679476,-0.009440885856747627,0.006011202000081539,0.01367107219994068,-0.002437211805954576,XArbitraryCorrectedZVertical,-0.5150026207506667,0.5156827035313176,-0.465089524536595,0.502528988283153,0.03924636542797089,0.9972847104072571,0.06231269985437393,5.583217620849609,38.56573486328125,-18.61331558227539,1,11245.71591325,stationary,1,2016-03-02 02:48:32.298,2016-03-02 02:47:07.556,55,35.09549,1,2,2016-03-02 02:48:29.431,11245.12826625,0,0.1858521,97.38873,192.168.1.101,100.78.239.175,2,1,0.35,0
2016-03-02 02:48:32.708,93,234B9614-18C8-49ED-8B56-CAB6C4F40872,my_iOS_device_1,1456908512.000028,40.79918932639136,-96.68574225166503,366.0884,0,327.65625,4,10,-9999,1456908512.686068,11.36697006225586,42.20608520507812,-6.2818603515625,214.4265899658203,211.1494598388672,25,11246.13054925,0.0332183837890625,1.01007080078125,0.0586090087890625,11246.09456925,-0.03806855620213767,0.02438843031461864,-0.01548574910659275,11246.09456925,1.050603755510727,2.584230906152791,-1.496743103660293,-0.01859966292977333,-0.004052938427776098,-0.009551789611577988,-0.001735300989821553,0.01661092601716518,0.005769631359726191,XArbitraryCorrectedZVertical,-0.5152466601827669,0.5156694029508229,-0.4649018392385007,0.5024661440370839,0.03913459181785583,0.9972593188285828,0.06278810650110245,5.559352874755859,38.58090591430664,-18.58899688720703,1,11245.71591325,stationary,1,2016-03-02 02:48:32.298,2016-03-02 02:47:07.556,55,35.09549,1,2,2016-03-02 02:48:29.431,11245.12826625,0,0.1858521,97.38873,192.168.1.101,100.78.239.175,2,1,0.35,0
2016-03-02 02:48:32.745,94,234B9614-18C8-49ED-8B56-CAB6C4F40872,my_iOS_device_1,1456908512.000028,40.79918932639136,-96.68574225166503,366.0884,0,327.65625,4,10,-9999,1456908512.722197,11.15883350372314,42.48452758789062,-6.34796142578125,214.4390411376953,211.1619110107422,25,11246.16084225,0.0353240966796875,1.011566162109375,0.0690460205078125,11246.12959925,-0.03264529495830031,0.02756211938566607,-0.02286883059661943,11246.12959925,1.064365463387997,2.597951247438557,-1.496886369174092,-0.013176204636693,-0.0008790040737949312,-0.01693692058324814,-0.006884525064378977,0.01544066891074181,-0.003504462772980332,XArbitraryCorrectedZVertical,-0.5155933042503814,0.5155210640061605,-0.4650317277231167,0.5021424791719705,0.03819556161761284,0.9972699284553528,0.06319684535264969,5.543641567230225,38.59138488769531,-18.57193374633789,1,11245.71591325,stationary,1,2016-03-02 02:48:32.298,2016-03-02 02:47:07.556,55,35.09549,1,2,2016-03-02 02:48:29.431,11245.12826625,0,0.1858521,97.38873,192.168.1.101,100.78.239.175,2,1,0.35,0
2016-03-02 02:48:32.765,95,234B9614-18C8-49ED-8B56-CAB6C4F40872,my_iOS_device_1,1456908512.000028,40.79918932639136,-96.68574225166503,366.0884,0,327.65625,4,10,-9999,1456908512.722197,11.15883350372314,42.48452758789062,-6.34796142578125,214.4390411376953,211.1619110107422,25,11246.19114125,0.0474853515625,1.012252807617188,0.0648345947265625,11246.16460525,-0.04882879227049382,0.01589667486279198,-0.007111705374947598,11246.16460525,1.075193767421329,2.608402107843644,-1.496429745849145,-0.0293597374111414,-0.01254418212920427,-0.00118092296179384,-0.00244038482196629,0.01433008257299662,0.005061297677457333,XArbitraryCorrectedZVertical,-0.5159929060358207,0.5155033290999571,-0.464849075355875,0.5019192920663127,0.03776448220014572,0.9972360730171204,0.06398472189903259,5.520077705383301,38.59757614135742,-18.56608581542969,1,11245.71591325,stationary,1,2016-03-02 02:48:32.298,2016-03-02 02:47:07.556,55,35.09549,1,2,2016-03-02 02:48:29.431,11245.12826625,0,0.1858521,97.38873,192.168.1.101,100.78.239.175,2,1,0.35,0
2016-03-02 02:48:32.795,96,234B9614-18C8-49ED-8B56-CAB6C4F40872,my_iOS_device_1,1456908512.000028,40.79918932639136,-96.68574225166503,366.0884,0,327.65625,4,10,-9999,1456908512.7759,10.84663009643555,42.79779052734375,-5.521728515625,214.492919921875,211.2157897949219,25,11246.22142125,0.038421630859375,1.016311645507812,0.06585693359375,11246.19962625,-0.04344201633359055,0.009505620878819825,-0.01235893167073072,11246.16460525,1.075193767421329,2.608402107843644,-1.496429745849145,-0.0293597374111414,-0.01254418212920427,-0.00118092296179384,-0.00244038482196629,0.01433008257299662,0.005061297677457333,XArbitraryCorrectedZVertical,-0.5159929060358207,0.5155033290999571,-0.464849075355875,0.5019192920663127,0.03776448220014572,0.9972360730171204,0.06398472189903259,5.520077705383301,38.59757614135742,-18.56608581542969,1,11245.71591325,stationary,1,2016-03-02 02:48:32.298,2016-03-02 02:47:07.556,55,35.09549,1,2,2016-03-02 02:48:29.431,11245.12826625,0,0.1858521,97.38873,192.168.1.101,100.78.239.175,2,1,0.35,0
2016-03-02 02:48:32.826,97,234B9614-18C8-49ED-8B56-CAB6C4F40872,my_iOS_device_1,1456908512.000028,40.79918932639136,-96.68574225166503,366.0884,0,327.65625,4,10,-9999,1456908512.7759,10.84663009643555,42.79779052734375,-5.521728515625,214.492919921875,211.2157897949219,25,11246.25173125,0.033416748046875,1.0087890625,0.06805419921875,11246.23461025,-0.0243130628557694,0.006332730756099421,-0.0110137690041317,11246.19962625,1.081959481327329,2.614659320701253,-1.495466810732032,-0.02397331409156322,-0.01893513090908527,-0.006426544394344091,0.009639083407819271,0.01508873421698809,-0.0002151601365767419,XArbitraryCorrectedZVertical,-0.5163663121084187,0.5156459145088049,-0.4644299856925482,0.5017767541043913,0.03784626722335815,0.9971640706062317,0.06504975259304047,5.492733001708984,38.61666870117188,-18.53446578979492,1,11245.71591325,stationary,1,2016-03-02 02:48:32.298,2016-03-02 02:47:07.556,55,35.09549,1,2,2016-03-02 02:48:29.431,11245.12826625,0,0.1858521,97.38873,192.168.1.101,100.78.239.175,2,1,0.35,0
2016-03-02 02:48:32.857,98,234B9614-18C8-49ED-8B56-CAB6C4F40872,my_iOS_device_1,1456908512.000028,40.79918932639136,-96.68574225166503,366.0884,0,327.65625,4,10,-9999,1456908512.833144,10.67318344116211,43.04144287109375,-5.09210205078125,214.5674743652344,211.2903442382812,25,11246.28203125,0.03240966796875,1.00946044921875,0.0771331787109375,11246.26964825,-0.0285613374266638,0.01483673674894044,-0.01107981539916566,11246.23461025,1.085595587760103,2.617613315300154,-1.495177621323948,-0.004823113325983286,-0.02215339057147503,-0.00507671432569623,0.001294792396947742,0.01599554903805256,0.0007053869194351137,XArbitraryCorrectedZVertical,-0.5166432875136253,0.5155435835125207,-0.4641796674873262,0.5018284201373295,0.03779822587966919,0.9971422553062439,0.06541094928979874,5.489189624786377,38.6296501159668,-18.50844192504883,1,11245.71591325,stationary,1,2016-03-02 02:48:32.298,2016-03-02 02:47:07.556,55,35.09549,1,2,2016-03-02 02:48:29.431,11245.12826625,0,0.1858521,97.38873,192.168.1.101,100.78.239.175,2,1,0.35,0
2016-03-02 02:48:32.905,99,234B9614-18C8-49ED-8B56-CAB6C4F40872,my_iOS_device_1,1456908512.000028,40.79918932639136,-96.68574225166503,366.0884,0,327.65625,4,10,-9999,1456908512.896204,10.46504402160645,42.41490173339844,-5.158203125,214.6309356689453,211.3538055419922,25,11246.31231125,0.0417327880859375,1.01593017578125,0.0696258544921875,11246.26964825,-0.0285613374266638,0.01483673674894044,-0.01107981539916566,11246.26964825,1.091184509198544,2.62261416253445,-1.495078697097198,-0.0090718949213624,-0.01364914979785681,-0.005143516696989536,-0.002851600525900722,0.009945288300514221,0.004520885180681944,XArbitraryCorrectedZVertical,-0.5169320912645878,0.51538685919923,-0.4640350472615129,0.5018257399721228,0.03751957044005394,0.997134804725647,0.06568480283021927,5.47517728805542,38.64307403564453,-18.48455429077148,1,11245.71591325,stationary,1,2016-03-02 02:48:32.298,2016-03-02 02:47:07.556,55,35.09549,1,2,2016-03-02 02:48:29.431,11245.12826625,0,0.1858521,97.38873,192.168.1.101,100.78.239.175,2,1,0.35,0
2016-03-02 02:48:32.918,100,234B9614-18C8-49ED-8B56-CAB6C4F40872,my_iOS_device_1,1456908512.000028,40.79918932639136,-96.68574225166503,366.0884,0,327.65625,4,10,-9999,1456908512.896204,10.46504402160645,42.41490173339844,-5.158203125,214.6309356689453,211.3538055419922,25,11246.34261625,0.0401458740234375,1.006744384765625,0.0784454345703125,11246.30463625,-0.04131388430650823,0.01057061899874251,-0.01232857163430382,11246.30463625,1.102512857844496,2.633450521015892,-1.494306278073022,-0.02182681299746037,-0.01791486144065857,-0.006392973940819502,0.005239101126790047,0.01889988966286182,0.002697623101994395,XArbitraryCorrectedZVertical,-0.5174090424662128,0.5154299905654441,-0.4637268800895429,0.5015747085752141,0.0371803343296051,0.9970760345458984,0.06676038354635239,5.433999061584473,38.66294097900391,-18.45514106750488,1,11245.71591325,stationary,1,2016-03-02 02:48:32.298,2016-03-02 02:47:07.556,55,35.09549,1,2,2016-03-02 02:48:29.431,11245.12826625,0,0.1858521,97.38873,192.168.1.101,100.78.239.175,2,1,0.35,0
2016-03-02 02:48:32.948,101,234B9614-18C8-49ED-8B56-CAB6C4F40872,my_iOS_device_1,1456908512.000028,40.79918932639136,-96.68574225166503,366.0884,0,327.65625,4,10,-9999,1456908512.896204,10.46504402160645,42.41490173339844,-5.158203125,214.6309356689453,211.3538055419922,25,11246.37291525,0.0360870361328125,1.01336669921875,0.082489013671875,11246.33967525,-0.0369907749089826,0.004178766066443333,-0.0175912442644094,11246.33967525,1.10912886830002,2.639273578021572,-1.493764215616564,-0.01750404387712479,-0.02430657669901848,-0.01165492925792933,0.003781351959332824,0.01093059405684471,0.004922979976981878,XArbitraryCorrectedZVertical,-0.5178156515921417,0.5153558762778717,-0.4633867278348864,0.5015456232672542,0.03705116733908653,0.99703449010849,0.06744945794343948,5.423999786376953,38.67362594604492,-18.4356803894043,1,11246.36251925,unknown,1,2016-03-02 02:48:32.945,2016-03-02 02:47:07.556,55,35.09549,1,2,2016-03-02 02:48:29.431,11245.12826625,0,0.1858521,97.38873,192.168.1.101,100.78.239.175,2,1,0.35,0
2016-03-02 02:48:32.986,102,234B9614-18C8-49ED-8B56-CAB6C4F40872,my_iOS_device_1,1456908512.000028,40.79918932639136,-96.68574225166503,366.0884,0,327.65625,4,10,-9999,1456908512.950636,10.74255847930908,41.99722290039062,-5.42254638671875,214.6846313476562,211.4075012207031,25,11246.40321325,0.033477783203125,1.0142822265625,0.076019287109375,11246.37468625,-0.0391482017080558,0.003119626900918819,-0.0154905427965549,11246.37468625,1.121365206190594,2.650648072764002,-1.492601953884201,-0.01966561935842037,-0.02536527067422867,-0.009553689509630203,-0.0007408569217659533,0.01642232201993465,0.01360059250146151,XArbitraryCorrectedZVertical,-0.5184484615808745,0.5154176979761018,-0.4628634772527345,0.5013114707673625,0.03682789206504822,0.9969443678855896,0.06888841837644577,5.399913311004639,38.69305038452148,-18.40196228027344,1,11246.36251925,unknown,1,2016-03-02 02:48:32.945,2016-03-02 02:47:07.556,55,35.09549,1,2,2016-03-02 02:48:29.431,11245.12826625,0,0.1858521,97.38873,192.168.1.101,100.78.239.175,2,1,0.35,0
2016-03-02 02:48:33.009,103,234B9614-18C8-49ED-8B56-CAB6C4F40872,my_iOS_device_1,1456908512.000028,40.79918932639136,-96.68574225166503,366.0884,0,327.65625,4,10,-9999,1456908512.950636,10.74255847930908,41.99722290039062,-5.42254638671875,214.6846313476562,211.4075012207031,25,11246.43350325,0.034881591796875,1.010818481445312,0.07366943359375,11246.40968025,-0.02316071305209211,0.007379353064500561,-0.01739203981487147,11246.40968025,1.132754393177867,2.661189182663668,-1.492221006458105,-0.003651592181995511,-0.02117236517369747,-0.01144671533256769,-0.00279742619022727,0.01736767962574959,0.00640970328822732,XArbitraryCorrectedZVertical,-0.5189827549703467,0.5152297468408269,-0.4626116194559493,0.501184295003403,0.03627520799636841,0.9969145655632019,0.06960958242416382,5.385599136352539,38.70818710327148,-18.37430572509766,1,11246.36251925,unknown,1,2016-03-02 02:48:32.945,2016-03-02 02:47:07.556,55,35.09549,1,2,2016-03-02 02:48:29.431,11245.12826625,0,0.1858521,97.38873,192.168.1.101,100.78.239.175,2,1,0.35,0
2016-03-02 02:48:33.043,104,234B9614-18C8-49ED-8B56-CAB6C4F40872,my_iOS_device_1,1456908512.000028,40.79918932639136,-96.68574225166503,366.0884,0,327.65625,4,10,-9999,1456908513.009254,11.26290130615234,41.61436462402344,-5.521728515625,214.7550811767578,211.4779510498047,25,11246.46381925,0.0326995849609375,1.01092529296875,0.0726470947265625,11246.44471225,-0.02523931028289896,0.01374936807586109,-0.0206227205332466,11246.40968025,1.132754393177867,2.661189182663668,-1.492221006458105,-0.003651592181995511,-0.02117236517369747,-0.01144671533256769,-0.00279742619022727,0.01736767962574959,0.00640970328822732,XArbitraryCorrectedZVertical,-0.5189827549703467,0.5152297468408269,-0.4626116194559493,0.501184295003403,0.03627520799636841,0.9969145655632019,0.06960958242416382,5.385599136352539,38.70818710327148,-18.37430572509766,1,11246.36251925,unknown,1,2016-03-02 02:48:32.945,2016-03-02 02:47:07.556,55,35.09549,1,2,2016-03-02 02:48:29.431,11246.44122425,0,0.1998596,97.38857,192.168.1.101,100.78.239.175,2,1,0.35,0
2016-03-02 02:48:33.071,105,234B9614-18C8-49ED-8B56-CAB6C4F40872,my_iOS_device_1,1456908512.000028,40.79918932639136,-96.68574225166503,366.0884,0,327.65625,4,10,-9999,1456908513.009254,11.26290130615234,41.61436462402344,-5.521728515625,214.7550811767578,211.4779510498047,25,11246.49411025,0.0360870361328125,1.012771606445312,0.073944091796875,11246.47972425,-0.02422118379816166,0.0116321550092481,-0.01740961667806599,11246.44471225,1.14246136756776,2.670280521176465,-1.492251502987427,-0.005731408018618822,-0.0148019278421998,-0.0146789513528347,-0.003492060583084822,0.01387102343142033,0.004660297185182571,XArbitraryCorrectedZVertical,-0.5193768734418452,0.5149780246941238,-0.4625498553569463,0.5010917368358486,0.03562707081437111,0.9969169497489929,0.06990940868854523,5.320048332214355,38.73764801025391,-18.33126831054688,1,11246.36251925,unknown,1,2016-03-02 02:48:32.945,2016-03-02 02:47:07.556,55,35.09549,1,2,2016-03-02 02:48:29.431,11246.44122425,0,0.1998596,97.38857,192.168.1.101,100.78.239.175,2,1,0.35,0
2016-03-02 02:48:33.100,106,234B9614-18C8-49ED-8B56-CAB6C4F40872,my_iOS_device_1,1456908513.000026,40.79918932639136,-96.68574225166503,365.6121,0,42.5390625,4,10,-9999,1456908513.070645,11.12414169311523,42.03204345703125,-5.3895263671875,214.8379058837891,211.5607757568359,25,11246.52441425,0.0324249267578125,1.011703491210938,0.0743408203125,11246.51474125,-0.0337339952119247,0.01374004701204581,-0.02181182195996698,11246.47972425,1.151596550955629,2.678865369490928,-1.492270615648031,-0.004713922739028931,-0.01691888645291328,-0.0114665050059557,-0.001051033264957368,0.0152428150177002,0.002924488857388496,XArbitraryCorrectedZVertical,-0.5197411530761951,0.5147494030324539,-0.4624980070855601,0.5009967857368266,0.03501709923148155,0.9969184398651123,0.07019563019275665,5.279031276702881,38.74891662597656,-18.31930541992188,1,11246.36251925,unknown,1,2016-03-02 02:48:32.945,2016-03-02 02:47:07.556,55,35.09549,1,2,2016-03-02 02:48:29.431,11246.44122425,0,0.1998596,97.38857,192.168.1.101,100.78.239.175,2,1,0.35,0
2016-03-02 02:48:33.145,107,234B9614-18C8-49ED-8B56-CAB6C4F40872,my_iOS_device_1,1456908513.000026,40.79918932639136,-96.68574225166503,365.6121,0,42.5390625,4,10,-9999,1456908513.129744,10.43034839630127,42.10163879394531,-5.19122314453125,214.9016876220703,211.6245574951172,25,11246.55464775,0.0357208251953125,1.008071899414062,0.0802459716796875,11246.51474125,-0.0337339952119247,0.01374004701204581,-0.02181182195996698,11246.51474125,1.159786123013724,2.686541585125911,-1.492118711942624,-0.01422751601785421,-0.01481070555746555,-0.01586909219622612,-0.0005777269252575934,0.0151479309424758,0.001056892680935562,XArbitraryCorrectedZVertical,-0.5200905068157423,0.5145921250013751,-0.4623903339675697,0.500895187299758,0.03454378992319107,0.9969065189361572,0.07059837877750397,5.260247707366943,38.75447082519531,-18.31296348571777,1,11246.36251925,unknown,1,2016-03-02 02:48:32.945,2016-03-02 02:47:07.556,55,35.09549,1,2,2016-03-02 02:48:29.431,11246.44122425,0,0.1998596,97.38857,192.168.1.101,100.78.239.175,2,1,0.35,0
2016-03-02 02:48:33.160,108,234B9614-18C8-49ED-8B56-CAB6C4F40872,my_iOS_device_1,1456908513.000026,40.79918932639136,-96.68574225166503,365.6121,0,42.5390625,4,10,-9999,1456908513.129744,10.43034839630127,42.10163879394531,-5.19122314453125,214.9016876220703,211.6245574951172,25,11246.58497275,0.0284423828125,1.012496948242188,0.0783233642578125,11246.58471075,-0.03916711015179536,0.01694968875780931,-0.0133664055111077,11246.54969975,1.168810079188224,2.69485938344254,-1.491670036038043,-0.01431189104914665,-0.02125360630452633,-0.006262663751840591,0.002091009169816971,0.01292499434202909,0.007189303170889616,XArbitraryCorrectedZVertical,-0.5205403751972085,0.5144716146378803,-0.4621416470099385,0.5007811634041062,0.03414861485362053,0.9968711733818054,0.0712866485118866,5.226866245269775,38.76704406738281,-18.29589653015137,1,11246.36251925,unknown,1,2016-03-02 02:48:32.945,2016-03-02 02:47:07.556,55,35.09549,1,2,2016-03-02 02:48:29.431,11246.44122425,0,0.1998596,97.38857,192.168.1.101,100.78.239.175,2,1,0.35,0
2016-03-02 02:48:33.191,109,234B9614-18C8-49ED-8B56-CAB6C4F40872,my_iOS_device_1,1456908513.000026,40.79918932639136,-96.68574225166503,365.6121,0,42.5390625,4,10,-9999,1456908513.187932,9.632488250732422,42.34529113769531,-4.95989990234375,214.9234008789062,211.6462707519531,25,11246.61524975,0.0277557373046875,1.015289306640625,0.0717315673828125,11246.58471075,-0.03916711015179536,0.01694968875780931,-0.0133664055111077,11246.58471075,1.17708551551181,2.702663645069751,-1.490867477757623,-0.01961066201329231,-0.01168961450457573,-0.007410470396280289,-0.002788037760183215,0.01291245874017477,0.008398052304983139,XArbitraryCorrectedZVertical,-0.5209595690365775,0.5145276573676408,-0.461829379285538,0.5005757102194562,0.03393122553825378,0.9968073964118958,0.07227516919374466,5.210768222808838,38.77646636962891,-18.28051376342773,1,11246.36251925,unknown,1,2016-03-02 02:48:32.945,2016-03-02 02:47:07.556,55,35.09549,1,2,2016-03-02 02:48:29.431,11246.44122425,0,0.1998596,97.38857,192.168.1.101,100.78.239.175,2,1,0.35,0
2016-03-02 02:48:33.231,110,234B9614-18C8-49ED-8B56-CAB6C4F40872,my_iOS_device_1,1456908513.000026,40.79918932639136,-96.68574225166503,365.6121,0,42.5390625,4,10,-9999,1456908513.187932,9.632488250732422,42.34529113769531,-4.95989990234375,214.9234008789062,211.6462707519531,25,11246.64554875,0.024169921875,1.009201049804688,0.0797119140625,11246.61972575,-0.03070731263304965,0.009521067213142284,-0.0100425141545798,11246.61972575,1.188601437554864,2.713633967785455,-1.490603380889651,-0.01115131191909313,-0.01911772042512894,-0.004089183639734983,-0.005489834118634462,0.01850303821265697,-0.001150987693108618,XArbitraryCorrectedZVertical,-0.5214202529298863,0.514356099792437,-0.4617170638003525,0.5003759341099596,0.03324557095766068,0.9967862963676453,0.07288255542516708,5.189784049987793,38.79762268066406,-18.24155235290527,1,11246.36251925,unknown,1,2016-03-02 02:48:32.945,2016-03-02 02:47:07.556,55,35.09549,1,2,2016-03-02 02:48:29.431,11246.44122425,0,0.1998596,97.38857,192.168.1.101,100.78.239.175,2,1,0.35,0
2016-03-02 02:48:33.249,111,234B9614-18C8-49ED-8B56-CAB6C4F40872,my_iOS_device_1,1456908513.000026,40.79918932639136,-96.68574225166503,365.6121,0,42.5390625,4,10,-9999,1456908513.244849,9.771247863769531,42.4844970703125,-4.893798828125,214.9413757324219,211.6642456054688,25,11246.67585175,0.021728515625,1.013275146484375,0.066650390625,11246.65472575,-0.03279256776658169,0.0265280139343883,-0.01221299044299438,11246.61972575,1.188601437554864,2.713633967785455,-1.490603380889651,-0.01115131191909313,-0.01911772042512894,-0.004089183639734983,-0.005489834118634462,0.01850303821265697,-0.001150987693108618,XArbitraryCorrectedZVertical,-0.5214202529298863,0.514356099792437,-0.4617170638003525,0.5003759341099596,0.03324557095766068,0.9967862963676453,0.07288255542516708,5.189784049987793,38.79762268066406,-18.24155235290527,1,11246.36251925,unknown,1,2016-03-02 02:48:32.945,2016-03-02 02:47:07.556,55,35.09549,1,2,2016-03-02 02:48:29.431,11246.44122425,0,0.1998596,97.38857,192.168.1.101,100.78.239.175,2,1,0.35,0
2016-03-02 02:48:33.312,112,234B9614-18C8-49ED-8B56-CAB6C4F40872,my_iOS_device_1,1456908513.000026,40.79918932639136,-96.68574225166503,365.6121,0,42.5390625,4,10,-9999,1456908513.280027,10.08345222473145,42.58892822265625,-4.72857666015625,214.9657135009766,211.6885833740234,25,11246.70616375,0.0293121337890625,1.011444091796875,0.0702972412109375,11246.68972375,-0.03277552353560519,0.02971528512699513,-0.01328011909178913,11246.68972375,1.208037957023817,2.732884950620719,-1.490493643390717,-0.01321985013782978,0.001077468856237829,-0.007331913337111473,-0.009342677891254425,0.01369005721062422,-0.009400411508977413,XArbitraryCorrectedZVertical,-0.5219866020776105,0.514134889989843,-0.4618413292753545,0.4998978782909194,0.03187990933656693,0.9967774748802185,0.07360939681529999,5.121664524078369,38.83211898803711,-18.18731880187988,1,11246.36251925,unknown,1,2016-03-02 02:48:32.945,2016-03-02 02:47:07.556,55,35.09549,1,2,2016-03-02 02:48:29.431,11246.44122425,0,0.1998596,97.38857,192.168.1.101,100.78.239.175,2,1,0.35,0
2016-03-02 02:48:33.313,113,234B9614-18C8-49ED-8B56-CAB6C4F40872,my_iOS_device_1,1456908513.000026,40.79918932639136,-96.68574225166503,365.6121,0,42.5390625,4,10,-9999,1456908513.280027,10.08345222473145,42.58892822265625,-4.72857666015625,214.9657135009766,211.6885833740234,25,11246.73646375,0.0316009521484375,1.014434814453125,0.069427490234375,11246.72476575,-0.04555816413576751,0.02439162610792673,-0.01239728119042786,11246.68972375,1.208037957023817,2.732884950620719,-1.490493643390717,-0.01321985013782978,0.001077468856237829,-0.007331913337111473,-0.009342677891254425,0.01369005721062422,-0.009400411508977413,XArbitraryCorrectedZVertical,-0.5219866020776105,0.514134889989843,-0.4618413292753545,0.4998978782909194,0.03187990933656693,0.9967774748802185,0.07360939681529999,5.121664524078369,38.83211898803711,-18.18731880187988,1,11246.36251925,unknown,1,2016-03-02 02:48:32.945,2016-03-02 02:47:07.556,55,35.09549,1,2,2016-03-02 02:48:29.431,11246.44122425,0,0.1998596,97.38857,192.168.1.101,100.78.239.175,2,1,0.35,0
2016-03-02 02:48:33.340,114,234B9614-18C8-49ED-8B56-CAB6C4F40872,my_iOS_device_1,1456908513.000026,40.79918932639136,-96.68574225166503,365.6121,0,42.5390625,4,10,-9999,1456908513.333079,10.04876327514648,42.2060546875,-5.2242431640625,214.9802703857422,211.7031402587891,25,11246.76673375,0.0258331298828125,1.014404296875,0.075225830078125,11246.72476575,-0.04555816413576751,0.02439162610792673,-0.01239728119042786,11246.72476575,1.215662203188521,2.740427735768146,-1.490114522523529,-0.02600122801959515,-0.004245928954333067,-0.006450152024626732,-0.0004960097139701247,0.01396468188613653,-0.002494604093953967,XArbitraryCorrectedZVertical,-0.5222535904034745,0.514148825042445,-0.461778322068799,0.4996628406090105,0.03147135302424431,0.9967470169067383,0.07419565320014954,5.087906360626221,38.83772277832031,-18.1848258972168,1,11246.36251925,unknown,1,2016-03-02 02:48:32.945,2016-03-02 02:47:07.556,55,35.09549,1,2,2016-03-02 02:48:29.431,11246.44122425,0,0.1998596,97.38857,192.168.1.101,100.78.239.175,2,1,0.35,0
