loggingTime,loggingSample,identifierForVendor,deviceID,locationTimestamp_since1970,locationLatitude,locationLongitude,locationAltitude,locationSpeed,locationCourse,locationVerticalAccuracy,locationHorizontalAccuracy,locationFloor,locationHeadingTimestamp_since1970,locationHeadingX,locationHeadingY,locationHeadingZ,locationTrueHeading,locationMagneticHeading,locationHeadingAccuracy,accelerometerTimestamp_sinceReboot,accelerometerAccelerationX,accelerometerAccelerationY,accelerometerAccelerationZ,gyroTimestamp_sinceReboot,gyroRotationX,gyroRotationY,gyroRotationZ,motionTimestamp_sinceReboot,motionYaw,motionRoll,motionPitch,motionRotationRateX,motionRotationRateY,motionRotationRateZ,motionUserAccelerationX,motionUserAccelerationY,motionUserAccelerationZ,motionAttitudeReferenceFrame,motionQuaternionX,motionQuaternionY,motionQuaternionZ,motionQuaternionW,motionGravityX,motionGravityY,motionGravityZ,motionMagneticFieldX,motionMagneticFieldY,motionMagneticFieldZ,motionMagneticFieldCalibrationAccuracy,activityTimestamp_sinceReboot,activity,activityActivityConfidence,activityActivityStartDate,pedometerStartDate,pedometerNumberofSteps,pedometerDistance,pedometerFloorAscended,pedometerFloorDescended,pedometerEndDate,altimeterTimestamp_sinceReboot,altimeterReset,altimeterRelativeAltitude,altimeterPressure,IP_en0,IP_pdp_ip0,deviceOrientation,batteryState,batteryLevel,state
2016-03-02 02:45:05.595,1,234B9614-18C8-49ED-8B56-CAB6C4F40872,my_iOS_device_1,1456908304.999999,40.79921463973894,-96.68586311870877,369.193,0.46,309.375,4,13.9858368491159,-9999,1456908305.582656,29.10796737670898,43.22129821777344,8.3670654296875,282.9818115234375,279.7046813964844,25,11038.99341479167,0.0375213623046875,1.020416259765625,0.0615386962890625,11038.98604979167,-0.01162656237095893,0.02018409790171055,-0.004442152698252169,11038.95103779167,2.417218658302583,2.451513113542032,-1.510203590852076,-0.0382760688662529,0.0009978961898013949,0.0001195668373838998,0.002511754166334867,0.0117686502635479,-0.004189263097941875,XArbitraryCorrectedZVertical,0.7229607678063698,-0.02603560870499114,-0.001798082887219256,-0.6903960038920381,0.03854964673519135,0.9981648325920105,0.04670025035738945,28.16772842407227,44.27502059936523,7.44414234161377,1,11020.507618375,unknown,2,2016-03-02 02:44:47.082,2016-03-02 02:41:14.235,128,99.7117,3,4,2016-03-02 02:45:02.625,11038.89149979167,0,-2.536438,97.42982,192.168.1.101,100.78.239.175,2,1,0.37,0
2016-03-02 02:45:05.600,2,234B9614-18C8-49ED-8B56-CAB6C4F40872,my_iOS_device_1,1456908304.999999,40.79921463973894,-96.68586311870877,369.193,0.46,309.375,4,13.9858368491159,-9999,1456908305.582656,29.10796737670898,43.22129821777344,8.3670654296875,282.9818115234375,279.7046813964844,25,11039.02371779167,0.0390167236328125,1.008560180664062,0.066131591796875,11039.02106079167,-0.02322223207327294,0.0424891372955602,-0.01101643216522178,11038.98604979167,2.440827094329208,2.475227371738468,-1.508667637937319,0.009565289132297039,-0.009596964344382286,0.001885101199150085,-0.002627743640914559,0.02471073903143406,0.02600753307342529,XArbitraryCorrectedZVertical,0.7236890087246962,-0.02602639315143755,-0.00171465814208434,-0.6896331673129046,0.03837908804416656,0.9980706572532654,0.04880630970001221,28.16753005981445,44.2647819519043,7.505536079406738,1,11020.507618375,unknown,2,2016-03-02 02:44:47.082,2016-03-02 02:41:14.235,128,99.7117,3,4,2016-03-02 02:45:02.625,11038.89149979167,0,-2.536438,97.42982,192.168.1.101,100.78.239.175,2,1,0.37,0
2016-03-02 02:45:05.634,3,234B9614-18C8-49ED-8B56-CAB6C4F40872,my_iOS_device_1,1456908304.999999,40.79921463973894,-96.68586311870877,369.193,0.46,309.375,4,13.9858368491159,-9999,1456908305.582656,29.10796737670898,43.22129821777344,8.3670654296875,282.9818115234375,279.7046813964844,25,11039.05399179167,0.0360260009765625,1.014419555664062,0.063934326171875,11039.02106079167,-0.02322223207327294,0.0424891372955602,-0.01101643216522178,11039.02106079167,2.442020123403641,2.476434168637506,-1.508609389603268,-0.002032139571383595,0.01270815543830395,-0.004689055494964123,0.003239419311285019,0.009364014491438866,0.01132810860872269,XArbitraryCorrectedZVertical,0.723720891208676,-0.02602378559941534,-0.001702343426310717,-0.6895998377595762,0.03835603967308998,0.9980670213699341,0.04889833182096481,28.16552352905273,44.26346206665039,7.520833015441895,1,11020.507618375,unknown,2,2016-03-02 02:44:47.082,2016-03-02 02:41:14.235,128,99.7117,3,4,2016-03-02 02:45:02.625,11038.89149979167,0,-2.536438,97.42982,192.168.1.101,100.78.239.175,2,1,0.37,0
2016-03-02 02:45:05.662,4,234B9614-18C8-49ED-8B56-CAB6C4F40872,my_iOS_device_1,1456908304.999999,40.79921463973894,-96.68586311870877,369.193,0.46,309.375,4,13.9858368491159,-9999,1456908305.641908,28.38346862792969,43.74290466308594,8.1363525390625,283.0112915039062,279.7341613769531,25,11039.08429479167,0.0375213623046875,1.011367797851562,0.0571136474609375,11039.05605779167,-0.01372087225219724,0.04463777566303613,-0.005550826660052156,11039.05605779167,2.452507857288143,2.487429548371374,-1.508040264875196,0.007465416565537453,0.01485696155577898,0.0007762452587485313,-0.002135709393769503,0.0163880717009306,0.01416646782308817,XArbitraryCorrectedZVertical,0.7240168599163009,-0.02614413641941996,-0.001464181273286806,-0.6892850838811192,0.03816170990467072,0.9980314970016479,0.04976785928010941,28.16026878356934,44.26043319702148,7.558241844177246,1,11020.507618375,unknown,2,2016-03-02 02:44:47.082,2016-03-02 02:41:14.235,128,99.7117,3,4,2016-03-02 02:45:02.625,11038.89149979167,0,-2.536438,97.42982,192.168.1.101,100.78.239.175,2,1,0.37,0
2016-03-02 02:45:05.690,5,234B9614-18C8-49ED-8B56-CAB6C4F40872,my_iOS_device_1,1456908304.999999,40.79921463973894,-96.68586311870877,369.193,0.46,309.375,4,13.9858368491159,-9999,1456908305.641908,28.38346862792969,43.74290466308594,8.1363525390625,283.0112915039062,279.7341613769531,25,11039.11456879167,0.036407470703125,1.01220703125,0.061920166015625,11039.09108779167,-0.01048593047607799,0.04463138407641994,-0.008701079913506887,11039.09108779167,2.453592835944375,2.489057264498634,-1.507966578457809,0.01069888006895781,0.01485069375485182,-0.00237399130128324,-0.0006039440631866455,0.01334093697369099,0.007225306238979101,XArbitraryCorrectedZVertical,0.7240517805835865,-0.02632849304186897,-0.001265041849378353,-0.689241778447144,0.03812530636787415,0.9980268478393555,0.04988834261894226,28.15320014953613,44.26089477539062,7.581845283508301,1,11020.507618375,unknown,2,2016-03-02 02:44:47.082,2016-03-02 02:41:14.235,128,99.7117,3,4,2016-03-02 02:45:02.625,11038.89149979167,0,-2.536438,97.42982,192.168.1.101,100.78.239.175,2,1,0.37,0
2016-03-02 02:45:05.739,6,234B9614-18C8-49ED-8B56-CAB6C4F40872,my_iOS_device_1,1456908304.999999,40.79921463973894,-96.68586311870877,369.193,0.46,309.375,4,13.9858368491159,-9999,1456908305.698764,28.59046936035156,43.88197326660156,8.2022705078125,283.0220642089844,279.7449340820312,25,11039.14487379167,0.0426483154296875,1.009170532226562,0.0506591796875,11039.12607379167,-0.01051762209304993,0.04144704236101219,-0.006568420512571433,11039.12607379167,2.458391775844335,2.494407395111562,-1.507796860885048,0.01066466234624386,0.01166660152375698,-0.000241726724198088,0.0006752734770998359,0.01109330728650093,0.0105490256100893,XArbitraryCorrectedZVertical,0.7241633887178642,-0.02647172454606705,-0.001018845135265235,-0.6891194353628314,0.0379599817097187,0.9980161786079407,0.05022673308849335,28.14654731750488,44.26083755493164,7.606860160827637,1,11020.507618375,unknown,2,2016-03-02 02:44:47.082,2016-03-02 02:41:14.235,128,99.7117,3,4,2016-03-02 02:45:02.625,11038.89149979167,0,-2.536438,97.42982,192.168.1.101,100.78.239.175,2,1,0.37,0
2016-03-02 02:45:05.751,7,234B9614-18C8-49ED-8B56-CAB6C4F40872,my_iOS_device_1,1456908304.999999,40.79921463973894,-96.68586311870877,369.193,0.46,309.375,4,13.9858368491159,-9999,1456908305.698764,28.59046936035156,43.88197326660156,8.2022705078125,283.0220642089844,279.7449340820312,25,11039.17514579167,0.044281005859375,1.009262084960938,0.0596160888671875,11039.16111479167,-0.02439242505625376,0.03719184357128359,-0.003570500073469234,11039.12607379167,2.458391775844335,2.494407395111562,-1.507796860885048,0.01066466234624386,0.01166660152375698,-0.000241726724198088,0.0006752734770998359,0.01109330728650093,0.0105490256100893,XArbitraryCorrectedZVertical,0.7241633887178642,-0.02647172454606705,-0.001018845135265235,-0.6891194353628314,0.0379599817097187,0.9980161786079407,0.05022673308849335,28.14654731750488,44.26083755493164,7.606860160827637,1,11020.507618375,unknown,2,2016-03-02 02:44:47.082,2016-03-02 02:41:14.235,128,99.7117,3,4,2016-03-02 02:45:02.625,11038.89149979167,0,-2.536438,97.42982,192.168.1.101,100.78.239.175,2,1,0.37,0
2016-03-02 02:45:05.782,8,234B9614-18C8-49ED-8B56-CAB6C4F40872,my_iOS_device_1,1456908304.999999,40.79921463973894,-96.68586311870877,369.193,0.46,309.375,4,13.9858368491159,-9999,1456908305.757567,28.83197021484375,43.84718322753906,8.0374755859375,283.0265808105469,279.7494506835938,25,11039.20546679167,0.0447845458984375,1.019088745117188,0.0506591796875,11039.16111479167,-0.02439242505625376,0.03719184357128359,-0.003570500073469234,11039.16111479167,2.454250371293538,2.490675580175526,-1.507694794498721,-0.003210563445463777,0.007411403115838766,0.002756914356723428,0.004851429257541895,0.01137439627200365,0.000935926684178412,XArbitraryCorrectedZVertical,0.7241336752514762,-0.0267076636581223,-0.0009653932281731077,-0.6891416320935849,0.03820887207984924,0.9980097413063049,0.05016575753688812,28.14683532714844,44.25535583496094,7.637606620788574,1,11020.507618375,unknown,2,2016-03-02 02:44:47.082,2016-03-02 02:41:14.235,128,99.7117,3,4,2016-03-02 02:45:02.625,11038.89149979167,0,-2.536438,97.42982,192.168.1.101,100.78.239.175,2,1,0.37,0
2016-03-02 02:45:05.819,9,234B9614-18C8-49ED-8B56-CAB6C4F40872,my_iOS_device_1,1456908304.999999,40.79921463973894,-96.68586311870877,369.193,0.46,309.375,4,13.9858368491159,-9999,1456908305.816431,29.38397216796875,43.77764892578125,7.77374267578125,283.0162658691406,279.7391357421875,25,11039.23575879167,0.04058837890625,1.009292602539062,0.0695037841796875,11039.19612479167,-0.0329137415961803,0.0212344486356378,-0.003686081264778674,11039.19612479167,2.45269688761464,2.489008574847146,-1.506847188342138,-0.01173332519829273,-0.008546128869056702,0.002642987994477153,0.00672611640766263,0.01922544650733471,0.001716161263175309,XArbitraryCorrectedZVertical,0.7243372213745787,-0.02688170961756389,-0.001220003454826934,-0.6889205142909756,0.03880611062049866,0.9979559779167175,0.05077407136559486,28.16158103942871,44.24311447143555,7.654170036315918,1,11020.507618375,unknown,2,2016-03-02 02:44:47.082,2016-03-02 02:41:14.235,128,99.7117,3,4,2016-03-02 02:45:02.625,11038.89149979167,0,-2.536438,97.42982,192.168.1.101,100.78.239.175,2,1,0.37,0
2016-03-02 02:45:05.843,10,234B9614-18C8-49ED-8B56-CAB6C4F40872,my_iOS_device_1,1456908304.999999,40.79921463973894,-96.68586311870877,369.193,0.46,309.375,4,13.9858368491159,-9999,1456908305.816431,29.38397216796875,43.77764892578125,7.77374267578125,283.0162658691406,279.7391357421875,25,11039.26605079167,0.03558349609375,1.00311279296875,0.057159423828125,11039.23112779167,-0.02441639350606447,0.005289836873224391,-0.003554521106928759,11039.23112779167,2.452111669070006,2.487804807027737,-1.506326270598662,-0.003236787160858512,-0.02449077554047108,0.00277558621019125,0.005753763485699892,0.01237715687602758,0.01094804517924786,XArbitraryCorrectedZVertical,0.7244667662792109,-0.02679344060671531,-0.001569031437402905,-0.6887870166007244,0.0391833707690239,0.9979225397109985,0.05113996937870979,28.18667984008789,44.22570419311523,7.66236400604248,1,11020.507618375,unknown,2,2016-03-02 02:44:47.082,2016-03-02 02:41:14.235,128,99.7117,3,4,2016-03-02 02:45:02.625,11038.89149979167,0,-2.536438,97.42982,192.168.1.101,100.78.239.175,2,1,0.37,0
2016-03-02 02:45:05.875,11,234B9614-18C8-49ED-8B56-CAB6C4F40872,my_iOS_device_1,1456908304.999999,40.79921463973894,-96.68586311870877,369.193,0.46,309.375,4,13.9858368491159,-9999,1456908305.816431,29.38397216796875,43.77764892578125,7.77374267578125,283.0162658691406,279.7391357421875,25,11039.29634079167,0.043609619140625,1.0147705078125,0.0540618896484375,11039.26615179167,-0.02871020813159923,0.0116758308511254,-0.000422909981104583,11039.23112779167,2.452111669070006,2.487804807027737,-1.506326270598662,-0.003236787160858512,-0.02449077554047108,0.00277558621019125,0.005753763485699892,0.01237715687602758,0.01094804517924786,XArbitraryCorrectedZVertical,0.7244667662792109,-0.02679344060671531,-0.001569031437402905,-0.6887870166007244,0.0391833707690239,0.9979225397109985,0.05113996937870979,28.18667984008789,44.22570419311523,7.66236400604248,1,11020.507618375,unknown,2,2016-03-02 02:44:47.082,2016-03-02 02:41:14.235,128,99.7117,3,4,2016-03-02 02:45:02.625,11038.89149979167,0,-2.536438,97.42982,192.168.1.101,100.78.239.175,2,1,0.37,0
2016-03-02 02:45:05.903,12,234B9614-18C8-49ED-8B56-CAB6C4F40872,my_iOS_device_1,1456908304.999999,40.79921463973894,-96.68586311870877,369.193,0.46,309.375,4,13.9858368491159,-9999,1456908305.876279,28.76296997070312,44.403564453125,7.37811279296875,282.990234375,279.7131042480469,25,11039.32663579167,0.0414886474609375,1.012939453125,0.059814453125,11039.30116379167,-0.05732747194115469,0.01057035268263351,-0.008298143640577899,11039.26615179167,2.460252987701199,2.495254981131659,-1.505703475159791,-0.007533722557127476,-0.01810432597994804,0.005906408187001944,-0.003592090914025903,0.005230584647506475,0.005232823546975851,XArbitraryCorrectedZVertical,0.7247473018408996,-0.02654521841730962,-0.001809441636722368,-0.6885008538661789,0.03917558863759041,0.9978821873664856,0.05192660167813301,28.19673156738281,44.21736526489258,7.673507213592529,1,11020.507618375,unknown,2,2016-03-02 02:44:47.082,2016-03-02 02:41:14.235,128,99.7117,3,4,2016-03-02 02:45:02.625,11038.89149979167,0,-2.536438,97.42982,192.168.1.101,100.78.239.175,2,1,0.37,0
2016-03-02 02:45:05.942,13,234B9614-18C8-49ED-8B56-CAB6C4F40872,my_iOS_device_1,1456908304.999999,40.79921463973894,-96.68586311870877,369.193,0.46,309.375,4,13.9858368491159,-9999,1456908305.876279,28.76296997070312,44.403564453125,7.37811279296875,282.990234375,279.7131042480469,25,11039.35692679167,0.0341796875,1.014068603515625,0.06365966796875,11039.33617479167,-0.05096997378691753,0.01696140666660566,-0.006077599923669829,11039.33617479167,2.478652303843811,2.512334305292159,-1.503931227983745,-0.02979426831007004,-0.01281842775642872,0.0002519999688956887,0.002164824167266488,0.01517409086227417,0.005796685349196196,XArbitraryCorrectedZVertical,0.7254832947058044,-0.026131837489561,-0.002329500216616643,-0.6877395507028448,0.03932382166385651,0.9977653622627258,0.05401776731014252,28.20054244995117,44.21080017089844,7.697329521179199,1,11020.507618375,unknown,2,2016-03-02 02:44:47.082,2016-03-02 02:41:14.235,128,99.7117,3,4,2016-03-02 02:45:02.625,11038.89149979167,0,-2.536438,97.42982,192.168.1.101,100.78.239.175,2,1,0.37,0
2016-03-02 02:45:05.979,14,234B9614-18C8-49ED-8B56-CAB6C4F40872,my_iOS_device_1,1456908304.999999,40.79921463973894,-96.68586311870877,369.193,0.46,309.375,4,13.9858368491159,-9999,1456908305.943926,28.969970703125,44.47311401367188,7.510009765625,282.9625854492188,279.6854553222656,25,11039.38721779167,0.03582763671875,1.009521484375,0.0630645751953125,11039.37118879167,-0.03815058156371211,0.01270567524465904,-0.01015223639149106,11039.33617479167,2.478652303843811,2.512334305292159,-1.503931227983745,-0.02979426831007004,-0.01281842775642872,0.0002519999688956887,0.002164824167266488,0.01517409086227417,0.005796685349196196,XArbitraryCorrectedZVertical,0.7254832947058044,-0.026131837489561,-0.002329500216616643,-0.6877395507028448,0.03932382166385651,0.9977653622627258,0.05401776731014252,28.20054244995117,44.21080017089844,7.697329521179199,1,11020.507618375,unknown,2,2016-03-02 02:44:47.082,2016-03-02 02:41:14.235,128,99.7117,3,4,2016-03-02 02:45:02.625,11038.89149979167,0,-2.536438,97.42982,192.168.1.101,100.78.239.175,2,1,0.37,0
2016-03-02 02:45:05.994,15,234B9614-18C8-49ED-8B56-CAB6C4F40872,my_iOS_device_1,1456908304.999999,40.79921463973894,-96.68586311870877,369.193,0.46,309.375,4,13.9858368491159,-9999,1456908305.943926,28.969970703125,44.47311401367188,7.510009765625,282.9625854492188,279.6854553222656,25,11039.41749579167,0.0398101806640625,1.00933837890625,0.0506439208984375,11039.37118879167,-0.03815058156371211,0.01270567524465904,-0.01015223639149106,11039.37118879167,2.493229961583016,2.526418867420173,-1.503044369355483,-0.0169772207736969,-0.01707371696829796,-0.003823491046205163,-0.003471024334430695,0.01541684474796057,0.008691218681633472,XArbitraryCorrectedZVertical,0.7259305431171698,-0.02587061191805323,-0.002417052495376785,-0.6872770299273877,0.03906977921724319,0.9977056980133057,0.0552888847887516,28.21055793762207,44.19261169433594,7.764759540557861,1,11020.507618375,unknown,2,2016-03-02 02:44:47.082,2016-03-02 02:41:14.235,128,99.7117,3,4,2016-03-02 02:45:02.625,11038.89149979167,0,-2.536438,97.42982,192.168.1.101,100.78.239.175,2,1,0.37,0
2016-03-02 02:45:06.064,16,234B9614-18C8-49ED-8B56-CAB6C4F40872,my_iOS_device_1,1456908304.999999,40.79921463973894,-96.68586311870877,369.193,0.46,309.375,4,13.9858368491159,-9999,1456908306.0513,28.86647033691406,43.81245422363281,7.9384765625,282.9352722167969,279.6581420898438,25,11039.44778679167,0.04241943359375,1.011138916015625,0.055633544921875,11039.44121179167,-0.04778856154870888,0.004203000832363054,-0.006024869334086261,11039.40619979167,2.50405514011592,2.536595670189421,-1.502389716582601,-0.02126189693808556,-0.0160073135048151,-0.001755474717356265,-0.001324699260294437,0.01062434259802103,0.0046464828774333,XArbitraryCorrectedZVertical,0.726261983934123,-0.02557232847502706,-0.002577171360626225,-0.6869373660649097,0.03887657821178436,0.9976611733436584,0.05622082576155663,28.20220375061035,44.19454193115234,7.78410816192627,1,11020.507618375,unknown,2,2016-03-02 02:44:47.082,2016-03-02 02:41:14.235,128,99.7117,3,4,2016-03-02 02:45:02.625,11038.89149979167,0,-2.536438,97.42982,192.168.1.101,100.78.239.175,2,1,0.37,0
2016-03-02 02:45:06.065,17,234B9614-18C8-49ED-8B56-CAB6C4F40872,my_iOS_device_1,1456908304.999999,40.79921463973894,-96.68586311870877,369.193,0.46,309.375,4,13.9858368491159,-9999,1456908306.0513,28.86647033691406,43.81245422363281,7.9384765625,282.9352722167969,279.6581420898438,25,11039.47811679167,0.046661376953125,1.013946533203125,0.0571441650390625,11039.44121179167,-0.04778856154870888,0.004203000832363054,-0.006024869334086261,11039.44121179167,2.507657201932035,2.539420235399604,-1.501873636376872,-0.02661555632948875,-0.02557590790092945,0.0003035134286619723,0.003089737612754107,0.01412349566817284,-0.002143508521839976,XArbitraryCorrectedZVertical,0.7264538830961957,-0.0253399502905251,-0.002894372675964346,-0.686741774803693,0.03900926187634468,0.9976257681846619,0.05675471574068069,28.1976261138916,44.19467163085938,7.799910545349121,1,11020.507618375,unknown,2,2016-03-02 02:44:47.082,2016-03-02 02:41:14.235,128,99.7117,3,4,2016-03-02 02:45:02.625,11038.89149979167,0,-2.536438,97.42982,192.168.1.101,100.78.239.175,2,1,0.37,0
2016-03-02 02:45:06.086,18,234B9614-18C8-49ED-8B56-CAB6C4F40872,my_iOS_device_1,1456908305.999958,40.79922251872792,-96.68586789639357,369.0453,0.73,313.9453125,4,13.18675898878264,-9999,1456908306.0513,28.86647033691406,43.81245422363281,7.9384765625,282.9352722167969,279.6581420898438,25,11039.50840679167,0.04913330078125,1.010543823242188,0.0500946044921875,11039.47622779167,-0.03712073717017847,-0.01281220168826221,-0.00905847613179552,11039.47622779167,2.509594525613324,2.540086715038877,-1.501214028459208,-0.01594730280339718,-0.0425911545753479,-0.00272895535454154,0.007119218353182077,0.01444379705935717,-0.002025382127612829,XArbitraryCorrectedZVertical,0.7266612883651448,-0.02499977776991936,-0.00345242643510209,-0.6865322016152295,0.03934379294514656,0.9975801110267639,0.05732323229312897,28.21328926086426,44.18232727050781,7.813212394714355,1,11020.507618375,unknown,2,2016-03-02 02:44:47.082,2016-03-02 02:41:14.235,128,99.7117,3,4,2016-03-02 02:45:02.625,11038.89149979167,0,-2.536438,97.42982,192.168.1.101,100.78.239.175,2,1,0.37,0
2016-03-02 02:45:06.139,19,234B9614-18C8-49ED-8B56-CAB6C4F40872,my_iOS_device_1,1456908305.999958,40.79922251872792,-96.68586789639357,369.0453,0.73,313.9453125,4,13.18675898878264,-9999,1456908306.110523,29.28047180175781,44.02107238769531,8.00439453125,282.923095703125,279.6459655761719,25,11039.53869379167,0.04888916015625,1.009384155273438,0.0530853271484375,11039.51122279167,-0.0361268454513609,-0.02768728795689979,-0.004773449937858026,11039.51122279167,2.505633064461734,2.534302523238007,-1.500927067760073,-0.01495190616697073,-0.05746636539697647,0.001557897427119315,0.009295243769884109,0.01298368722200394,-0.007235178258270025,XArbitraryCorrectedZVertical,0.7266801452270151,-0.02451240432926332,-0.004253098689606841,-0.6865253234356037,0.03983805701136589,0.9975601434707642,0.05732978135347366,28.22848320007324,44.17447662353516,7.802693367004395,1,11020.507618375,unknown,2,2016-03-02 02:44:47.082,2016-03-02 02:41:14.235,128,99.7117,3,4,2016-03-02 02:45:02.625,11038.89149979167,0,-2.536438,97.42982,192.168.1.101,100.78.239.175,2,1,0.37,0
2016-03-02 02:45:06.147,20,234B9614-18C8-49ED-8B56-CAB6C4F40872,my_iOS_device_1,1456908305.999958,40.79922251872792,-96.68586789639357,369.0453,0.73,313.9453125,4,13.18675898878264,-9999,1456908306.110523,29.28047180175781,44.02107238769531,8.00439453125,282.923095703125,279.6459655761719,25,11039.56898679167,0.03167724609375,1.007461547851562,0.055145263671875,11039.54623979167,-0.03939267989612507,-0.02980183786242271,0.0005089300843141425,11039.54623979167,2.500833161392174,2.527291471304576,-1.500369913530653,-0.01821639947593212,-0.05958107486367226,0.006842102389782667,0.008329795673489571,0.01186307054013014,-0.00441791582852602,XArbitraryCorrectedZVertical,0.7267580752392807,-0.02396500759010557,-0.005268300604264301,-0.68645511396917,0.04055936262011528,0.9975211024284363,0.05750324204564095,28.28985214233398,44.15033340454102,7.716640949249268,1,11020.507618375,unknown,2,2016-03-02 02:44:47.082,2016-03-02 02:41:14.235,128,99.7117,3,4,2016-03-02 02:45:02.625,11038.89149979167,0,-2.536438,97.42982,192.168.1.101,100.78.239.175,2,1,0.37,0
2016-03-02 02:45:06.177,21,234B9614-18C8-49ED-8B56-CAB6C4F40872,my_iOS_device_1,1456908305.999958,40.79922251872792,-96.68586789639357,369.0453,0.73,313.9453125,4,13.18675898878264,-9999,1456908306.170359,29.34946823120117,44.29927062988281,8.2022705078125,282.9081726074219,279.6310424804688,25,11039.59927779167,0.030609130859375,1.01287841796875,0.0518798828125,11039.58126579167,-0.05629363280598593,-0.009630523133944541,-0.007207046541972435,11039.54623979167,2.500833161392174,2.527291471304576,-1.500369913530653,-0.01821639947593212,-0.05958107486367226,0.006842102389782667,0.008329795673489571,0.01186307054013014,-0.00441791582852602,XArbitraryCorrectedZVertical,0.7267580752392807,-0.02396500759010557,-0.005268300604264301,-0.68645511396917,0.04055936262011528,0.9975211024284363,0.05750324204564095,28.28985214233398,44.15033340454102,7.716640949249268,1,11020.507618375,unknown,2,2016-03-02 02:44:47.082,2016-03-02 02:41:14.235,128,99.7117,3,4,2016-03-02 02:45:02.625,11038.89149979167,0,-2.536438,97.42982,192.168.1.101,100.78.239.175,2,1,0.37,0
2016-03-02 02:45:06.219,22,234B9614-18C8-49ED-8B56-CAB6C4F40872,my_iOS_device_1,1456908305.999958,40.79922251872792,-96.68586789639357,369.0453,0.73,313.9453125,4,13.18675898878264,-9999,1456908306.170359,29.34946823120117,44.29927062988281,8.2022705078125,282.9081726074219,279.6310424804688,25,11039.62956979167,0.05010986328125,1.012069702148438,0.0565643310546875,11039.61627679167,-0.04876487640433192,-0.01602290869846174,-0.01348891092125134,11039.58126579167,2.509656302827214,2.534477746698311,-1.499920539233747,-0.03511640802025795,-0.03940938413143158,-0.0008754033478908241,-0.01266033668071032,0.01023158431053162,-0.01023351959884167,XArbitraryCorrectedZVertical,0.7270055042404213,-0.02331704611769833,-0.005777104880298508,-0.6862112919674654,0.04040081426501274,0.997489333152771,0.05816137418150902,28.31316757202148,44.13887405395508,7.696640014648438,1,11020.507618375,unknown,2,2016-03-02 02:44:47.082,2016-03-02 02:41:14.235,128,99.7117,3,4,2016-03-02 02:45:02.625,11038.89149979167,0,-2.536438,97.42982,192.168.1.101,100.78.239.175,2,1,0.37,0
2016-03-02 02:45:06.238,23,234B9614-18C8-49ED-8B56-CAB6C4F40872,my_iOS_device_1,1456908305.999958,40.79922251872792,-96.68586789639357,369.0453,0.73,313.9453125,4,13.18675898878264,-9999,1456908306.230286,29.28046989440918,44.50788879394531,8.20233154296875,282.8924255371094,279.6152954101562,25,11039.65986179167,0.0359039306640625,1.005325317382812,0.0598297119140625,11039.65128679167,-0.05732800457337271,-0.00963718103666974,-0.0093535543805763,11039.61627679167,2.524058488799377,2.547342367548822,-1.499459598964233,-0.0275860633701086,-0.04580140858888626,-0.007159397006034851,-0.0015155776636675,0.01937383040785789,-0.002325067529454827,XArbitraryCorrectedZVertical,0.7273365429747167,-0.02258707301069815,-0.006133728152169231,-0.6858817352615049,0.03990669175982475,0.9974566102027893,0.05905724689364433,28.29780387878418,44.14992141723633,7.689767837524414,1,11020.507618375,unknown,2,2016-03-02 02:44:47.082,2016-03-02 02:41:14.235,128,99.7117,3,4,2016-03-02 02:45:02.625,11038.89149979167,0,-2.536438,97.42982,192.168.1.101,100.78.239.175,2,1,0.37,0
2016-03-02 02:45:06.268,24,234B9614-18C8-49ED-8B56-CAB6C4F40872,my_iOS_device_1,1456908305.999958,40.79922251872792,-96.68586789639357,369.0453,0.73,313.9453125,4,13.18675898878264,-9999,1456908306.230286,29.28046989440918,44.50788879394531,8.20233154296875,282.8924255371094,279.6152954101562,25,11039.69013879167,0.0348968505859375,1.015731811523438,0.0623626708984375,11039.65128679167,-0.05732800457337271,-0.00963718103666974,-0.0093535543805763,11039.65128679167,2.527666054134047,2.549576991921904,-1.498924047078944,-0.03614776208996773,-0.03941566124558449,-0.003022596705704927,-0.002383502433076501,0.007083043456077576,-0.006961982231587172,XArbitraryCorrectedZVertical,0.7275329621530687,-0.02214863057689628,-0.006665570649831949,-0.6856827235042762,0.04007271304726601,0.9974182844161987,0.05958954617381096,28.3020133972168,44.14845657348633,7.682669639587402,1,11020.507618375,unknown,2,2016-03-02 02:44:47.082,2016-03-02 02:41:14.235,128,99.7117,3,4,2016-03-02 02:45:02.625,11038.89149979167,0,-2.536438,97.42982,192.168.1.101,100.78.239.175,2,1,0.37,0
2016-03-02 02:45:06.299,25,234B9614-18C8-49ED-8B56-CAB6C4F40872,my_iOS_device_1,1456908305.999958,40.79922251872792,-96.68586789639357,369.0453,0.73,313.9453125,4,13.18675898878264,-9999,1456908306.289843,29.38396835327148,43.91679382324219,8.0374755859375,282.876220703125,279.5990905761719,25,11039.72044379167,0.041595458984375,1.013687133789062,0.05731201171875,11039.68630279167,-0.06153633172791591,-0.006458964591769176,-0.0126135298709423,11039.68630279167,2.545197760221867,2.565729833864828,-1.497757174351189,-0.04035728052258492,-0.03623710200190544,-0.006283971946686506,-0.00429258169606328,0.01470535807311535,0.006482841446995735,XArbitraryCorrectedZVertical,0.7281063252948512,-0.02153491324997042,-0.007026479941532427,-0.6850898153939782,0.03973874822258949,0.997333824634552,0.06120514869689941,28.30009460449219,44.14655685424805,7.700644493103027,1,11020.507618375,unknown,2,2016-03-02 02:44:47.082,2016-03-02 02:41:14.235,128,99.7117,3,4,2016-03-02 02:45:02.625,11038.89149979167,0,-2.536438,97.42982,192.168.1.101,100.78.239.175,2,1,0.37,0
2016-03-02 02:45:06.328,26,234B9614-18C8-49ED-8B56-CAB6C4F40872,my_iOS_device_1,1456908305.999958,40.79922251872792,-96.68586789639357,369.0453,0.73,313.9453125,4,13.18675898878264,-9999,1456908306.289843,29.38396835327148,43.91679382324219,8.0374755859375,282.876220703125,279.5990905761719,25,11039.75073379167,0.03912353515625,1.00909423828125,0.0657958984375,11039.72131479167,-0.04030348098893217,-0.02132472979659148,-0.01016608482915948,11039.72131479167,2.55455106996465,2.573547910850474,-1.49737084985545,-0.01912309974431992,-0.05110260099172592,-0.003837292781099677,0.002129147062078118,0.01638157293200493,-0.004526723176240921,XArbitraryCorrectedZVertical,0.7283428573187989,-0.02088180174519876,-0.007458260093998902,-0.684854004080367,0.03946631029248238,0.9973055720329285,0.06183873489499092,28.28985595703125,44.15182876586914,7.708038330078125,1,11020.507618375,unknown,2,2016-03-02 02:44:47.082,2016-03-02 02:41:14.235,128,99.7117,3,4,2016-03-02 02:45:02.625,11038.89149979167,0,-2.536438,97.42982,192.168.1.101,100.78.239.175,2,1,0.37,0
2016-03-02 02:45:06.378,27,234B9614-18C8-49ED-8B56-CAB6C4F40872,my_iOS_device_1,1456908305.999958,40.79922251872792,-96.68586789639357,369.0453,0.73,313.9453125,4,13.18675898878264,-9999,1456908306.345714,29.17696952819824,44.19496154785156,7.77374267578125,282.8457641601562,279.5686340332031,25,11039.78103679167,0.0391387939453125,1.013534545898438,0.0517120361328125,11039.75632479167,-0.03716228248318371,-0.009613212586859026,-0.005863481772027459,11039.75632479167,2.55898053286714,2.576416572199924,-1.496691021938985,-0.01598271355032921,-0.0393909215927124,0.0004656896344386041,-0.0005283218924887478,0.01183877978473902,0.003271653084084392,XArbitraryCorrectedZVertical,0.7285922914607915,-0.02038125337136977,-0.008060730156620758,-0.6845968901216586,0.03965185582637787,0.9972554445266724,0.06252424418926239,28.28985595703125,44.15182876586914,7.708038330078125,1,11020.507618375,unknown,2,2016-03-02 02:44:47.082,2016-03-02 02:41:14.235,128,99.7117,3,4,2016-03-02 02:45:02.625,11038.89149979167,0,-2.536438,97.42982,192.168.1.101,100.78.239.175,2,1,0.37,0
2016-03-02 02:45:06.389,28,234B9614-18C8-49ED-8B56-CAB6C4F40872,my_iOS_device_1,1456908305.999958,40.79922251872792,-96.68586789639357,369.0453,0.73,313.9453125,4,13.18675898878264,-9999,1456908306.345714,29.17696952819824,44.19496154785156,7.77374267578125,282.8457641601562,279.5686340332031,25,11039.81133079167,0.0323028564453125,1.011459350585938,0.067291259765625,11039.79133779167,-0.02756584781119218,0.002088450926840138,-0.0067958544696642,11039.75632479167,2.55898053286714,2.576416572199924,-1.496691021938985,-0.01598271355032921,-0.0393909215927124,0.0004656896344386041,-0.0005283218924887478,0.01183877978473902,0.003271653084084392,XArbitraryCorrectedZVertical,0.7285922914607915,-0.02038125337136977,-0.008060730156620758,-0.6845968901216586,0.03965185582637787,0.9972554445266724,0.06252424418926239,28.28985595703125,44.15182876586914,7.708038330078125,1,11020.507618375,unknown,2,2016-03-02 02:44:47.082,2016-03-02 02:41:14.235,128,99.7117,3,4,2016-03-02 02:45:02.625,11038.89149979167,0,-2.536438,97.42982,192.168.1.101,100.78.239.175,2,1,0.37,0
2016-03-02 02:45:06.420,29,234B9614-18C8-49ED-8B56-CAB6C4F40872,my_iOS_device_1,1456908305.999958,40.79922251872792,-96.68586789639357,369.0453,0.73,313.9453125,4,13.18675898878264,-9999,1456908306.404599,29.24596977233887,43.986328125,7.44403076171875,282.794921875,279.5177917480469,25,11039.84162479167,0.0383148193359375,1.014663696289062,0.0562286376953125,11039.82632879167,-0.03496197879056024,0.009517871419834189,-0.01010429949186964,11039.79133779167,2.560560617009297,2.57688294770642,-1.496934114004167,-0.006392118986696005,-0.02769445814192295,-0.0004687835462391376,-0.003939974587410688,0.01153089478611946,-0.00288970023393631,XArbitraryCorrectedZVertical,0.7285411553906491,-0.01991873708713024,-0.008385104358345257,-0.6846610247704992,0.03949295356869698,0.9972734451293945,0.06233794242143631,28.30797576904297,44.14334487915039,7.690084934234619,1,11020.507618375,unknown,2,2016-03-02 02:44:47.082,2016-03-02 02:41:14.235,128,99.7117,3,4,2016-03-02 02:45:02.625,11038.89149979167,0,-2.536438,97.42982,192.168.1.101,100.78.239.175,2,1,0.37,0
2016-03-02 02:45:06.459,30,234B9614-18C8-49ED-8B56-CAB6C4F40872,my_iOS_device_1,1456908305.999958,40.79922251872792,-96.68586789639357,369.0453,0.73,313.9453125,4,13.18675898878264,-9999,1456908306.439976,28.86647033691406,44.16020202636719,7.54290771484375,282.7727355957031,279.49560546875,25,11039.87191679167,0.0401153564453125,1.008804321289062,0.067230224609375,11039.86136279167,-0.02015693365859174,0.01167343400614432,-0.003495931562947016,11039.82632879167,2.569494672040201,2.585068852738634,-1.49676991272724,-0.01378885749727488,-0.02026468142867088,-0.003779108636081219,-0.007131197955459356,0.0157849695533514,0.001166666275821626,XArbitraryCorrectedZVertical,0.7287104717870029,-0.01949710344616942,-0.008492148536771249,-0.6844916322924487,0.03906784206628799,0.9972612857818604,0.06279817968606949,28.06244087219238,43.37876129150391,7.165243148803711,1,11020.507618375,unknown,2,2016-03-02 02:44:47.082,2016-03-02 02:41:14.235,128,99.7117,3,4,2016-03-02 02:45:02.625,11038.89149979167,0,-2.536438,97.42982,192.168.1.101,100.78.239.175,2,1,0.37,0
2016-03-02 02:45:06.480,31,234B9614-18C8-49ED-8B56-CAB6C4F40872,my_iOS_device_1,1456908305.999958,40.79922251872792,-96.68586789639357,369.0453,0.73,313.9453125,4,13.18675898878264,-9999,1456908306.439976,28.86647033691406,44.16020202636719,7.54290771484375,282.7727355957031,279.49560546875,25,11039.90221279167,0.04156494140625,1.012420654296875,0.0553741455078125,11039.86136279167,-0.02015693365859174,0.01167343400614432,-0.003495931562947016,11039.86136279167,2.569796042614083,2.584674015617781,-1.4968652109588,0.00101706653367728,-0.0181089248508215,0.002828819444403052,0.002171588130295277,0.01333651877939701,-0.0005682818591594696,XArbitraryCorrectedZVertical,0.7286844874912791,-0.01923416591101703,-0.008721134210214344,-0.6845238537621204,0.0390424020588398,0.9972683191299438,0.06270206719636917,28.0521068572998,43.38511276245117,7.16722297668457,1,11020.507618375,unknown,2,2016-03-02 02:44:47.082,2016-03-02 02:41:14.235,128,99.7117,3,4,2016-03-02 02:45:02.625,11038.89149979167,0,-2.536438,97.42982,192.168.1.101,100.78.239.175,2,1,0.37,0
2016-03-02 02:45:06.515,32,234B9614-18C8-49ED-8B56-CAB6C4F40872,my_iOS_device_1,1456908305.999958,40.79922251872792,-96.68586789639357,369.0453,0.73,313.9453125,4,13.18675898878264,-9999,1456908306.492766,29.00446891784668,43.95156860351562,7.1473388671875,282.7162780761719,279.4391479492188,25,11039.93250379167,0.0454864501953125,1.007064819335938,0.0634613037109375,11039.89637879167,-0.02013509573765309,0.021241106538363,-0.004566256005049862,11039.89637879167,2.567344544189051,2.581878344206038,-1.497018479283641,0.00103943923022598,-0.008541019633412361,0.001758341561071575,-0.001538731390610337,0.01543092261999846,-0.01105628907680511,XArbitraryCorrectedZVertical,0.7286049563415743,-0.01914138057712429,-0.008871514022863186,-0.6846091741884671,0.03913638740777969,0.9972796440124512,0.06246314942836761,28.05326843261719,43.38748168945312,7.148324489593506,1,11020.507618375,unknown,2,2016-03-02 02:44:47.082,2016-03-02 02:41:14.235,128,99.7117,3,4,2016-03-02 02:45:02.625,11038.89149979167,0,-2.536438,97.42982,192.168.1.101,100.78.239.175,2,1,0.37,0
2016-03-02 02:45:06.542,33,234B9614-18C8-49ED-8B56-CAB6C4F40872,my_iOS_device_1,1456908305.999958,40.79922251872792,-96.68586789639357,369.0453,0.73,313.9453125,4,13.18675898878264,-9999,1456908306.492766,29.00446891784668,43.95156860351562,7.1473388671875,282.7162780761719,279.4391479492188,25,11039.96279679167,0.040191650390625,1.007415771484375,0.0603485107421875,11039.93137679167,-0.02439881664286995,0.02868464178513447,-0.003566239015725108,11039.93137679167,2.563153219968088,2.577561365132428,-1.496955626508396,-0.003223463660106063,-0.001097377040423453,0.002759229391813278,0.004994410090148449,0.01104102563112974,0.0005959149566479027,XArbitraryCorrectedZVertical,0.7285633542617834,-0.01920244222030424,-0.009021376106080484,-0.684649778947402,0.03943918272852898,0.9972749948501587,0.06234658882021904,28.05395889282227,43.39066314697266,7.126255512237549,1,11020.507618375,unknown,2,2016-03-02 02:44:47.082,2016-03-02 02:41:14.235,128,99.7117,3,4,2016-03-02 02:45:02.625,11038.89149979167,0,-2.536438,97.42982,192.168.1.101,100.78.239.175,2,1,0.37,0
2016-03-02 02:45:06.571,34,234B9614-18C8-49ED-8B56-CAB6C4F40872,my_iOS_device_1,1456908305.999958,40.79922251872792,-96.68586789639357,369.0453,0.73,313.9453125,4,13.18675898878264,-9999,1456908306.552345,29.21146965026855,43.67340087890625,7.14727783203125,282.6579284667969,279.3807983398438,25,11039.99309279167,0.0378875732421875,1.01318359375,0.063934326171875,11039.96637579167,-0.03499313777531417,0.02654106342372969,-0.006916229350935782,11039.96637579167,2.56247757813775,2.576801225250014,-1.49666247607894,-0.01381757482886314,-0.003240788355469704,-0.0005898053059354424,0.0005486094742082059,0.01016242709010839,-0.002215028740465641,XArbitraryCorrectedZVertical,0.7286366882491997,-0.01924438201141544,-0.009123077691179446,-0.6845692074229293,0.03964304178953171,0.9972533583641052,0.06256353855133057,28.07205200195312,43.38026428222656,7.1183180809021,1,11020.507618375,unknown,2,2016-03-02 02:44:47.082,2016-03-02 02:41:14.235,128,99.7117,3,4,2016-03-02 02:45:02.625,11038.89149979167,0,-2.536438,97.42982,192.168.1.101,100.78.239.175,2,1,0.37,0
2016-03-02 02:45:06.619,35,234B9614-18C8-49ED-8B56-CAB6C4F40872,my_iOS_device_1,1456908305.999958,40.79922251872792,-96.68586789639357,369.0453,0.73,313.9453125,4,13.18675898878264,-9999,1456908306.591304,29.31496810913086,43.49954223632812,7.0484619140625,282.62548828125,279.3483581542969,25,11040.02337079167,0.0468292236328125,1.015213012695312,0.0529327392578125,11040.00141779167,-0.03398965867657231,0.02442677983431578,-0.002637594743614477,11039.96637579167,2.56247757813775,2.576801225250014,-1.49666247607894,-0.01381757482886314,-0.003240788355469704,-0.0005898053059354424,0.0005486094742082059,0.01016242709010839,-0.002215028740465641,XArbitraryCorrectedZVertical,0.7286366882491997,-0.01924438201141544,-0.009123077691179446,-0.6845692074229293,0.03964304178953171,0.9972533583641052,0.06256353855133057,28.07205200195312,43.38026428222656,7.1183180809021,1,11020.507618375,unknown,2,2016-03-02 02:44:47.082,2016-03-02 02:41:14.235,128,99.7117,3,4,2016-03-02 02:45:02.625,11038.89149979167,0,-2.536438,97.42982,192.168.1.101,100.78.239.175,2,1,0.37,0
2016-03-02 02:45:06.632,36,234B9614-18C8-49ED-8B56-CAB6C4F40872,my_iOS_device_1,1456908305.999958,40.79922251872792,-96.68586789639357,369.0453,0.73,313.9453125,4,13.18675898878264,-9999,1456908306.591304,29.31496810913086,43.49954223632812,7.0484619140625,282.62548828125,279.3483581542969,25,11040.05366979167,0.045867919921875,1.005569458007812,0.065155029296875,11040.03642879167,-0.02552080641012033,0.009551427249569188,-0.0003755057137011726,11040.00141779167,2.565517752547692,2.579702707558763,-1.496343816332093,-0.01281370874494314,-0.00535487337037921,0.003688147524371743,-0.001743083354085684,0.0159539021551609,0.0009871048387140036,XArbitraryCorrectedZVertical,0.7287697412574405,-0.01919048951157918,-0.009167244813811539,-0.6844284849145105,0.03963065519928932,0.9972296953201294,0.06294722110033035,28.07590866088867,43.37622833251953,7.127692222595215,1,11020.507618375,unknown,2,2016-03-02 02:44:47.082,2016-03-02 02:41:14.235,128,99.7117,3,4,2016-03-02 02:45:02.625,11038.89149979167,0,-2.536438,97.42982,192.168.1.101,100.78.239.175,2,1,0.37,0
2016-03-02 02:45:06.663,37,234B9614-18C8-49ED-8B56-CAB6C4F40872,my_iOS_device_1,1456908305.999958,40.79922251872792,-96.68586789639357,369.0453,0.73,313.9453125,4,13.18675898878264,-9999,1456908306.639474,29.31496810913086,43.63864135742188,7.64178466796875,282.5807800292969,279.3036499023438,25,11040.08397379167,0.041046142578125,1.012283325195312,0.0576934814453125,11040.07143779167,-0.03608423487391963,0.009528790380303515,-0.005857622817629284,11040.03642879167,2.558521605231128,2.572059223001016,-1.49635060844104,-0.004342585802078247,-0.02023014426231384,0.005951752420514822,0.005211625713855028,0.01493105757981539,-0.009139450266957283,XArbitraryCorrectedZVertical,0.7286650238846604,-0.01912238185097449,-0.009556544380892863,-0.6845365512074484,0.04010697826743126,0.9972301721572876,0.06263676285743713,28.08609962463379,43.36903381347656,7.131325721740723,1,11020.507618375,unknown,2,2016-03-02 02:44:47.082,2016-03-02 02:41:14.235,128,99.7117,3,4,2016-03-02 02:45:02.625,11038.89149979167,0,-2.536438,97.42982,192.168.1.101,100.78.239.175,2,1,0.37,0
2016-03-02 02:45:06.701,38,234B9614-18C8-49ED-8B56-CAB6C4F40872,my_iOS_device_1,1456908305.999958,40.79922251872792,-96.68586789639357,369.0453,0.73,313.9453125,4,13.18675898878264,-9999,1456908306.698339,29.14247131347656,44.09066772460938,7.60894775390625,282.538818359375,279.2616882324219,25,11040.11425279167,0.039215087890625,1.006057739257812,0.0623931884765625,11040.10645479167,-0.04667456126472873,0.01270221313524193,-0.009210276313930038,11040.07143779167,2.556199794090194,2.569035115761475,-1.495954532842032,-0.01490589324384928,-0.02025265991687775,0.0004707826301455498,0.004457447212189436,0.007178612519055605,0.002719843992963433,XArbitraryCorrectedZVertical,0.7287401573143342,-0.01900972052441235,-0.009940193675813312,-0.6844542396630542,0.04051020368933678,0.9972006678581238,0.06284717470407486,28.11491203308105,43.35624313354492,7.095466613769531,1,11020.507618375,unknown,2,2016-03-02 02:44:47.082,2016-03-02 02:41:14.235,128,99.7117,3,4,2016-03-02 02:45:02.625,11038.89149979167,0,-2.536438,97.42982,192.168.1.101,100.78.239.175,2,1,0.37,0
2016-03-02 02:45:06.724,39,234B9614-18C8-49ED-8B56-CAB6C4F40872,my_iOS_device_1,1456908305.999958,40.79922251872792,-96.68586789639357,369.0453,0.73,313.9453125,4,13.18675898878264,-9999,1456908306.698339,29.14247131347656,44.09066772460938,7.60894775390625,282.538818359375,279.2616882324219,25,11040.14454579167,0.0363311767578125,1.010543823242188,0.069580078125,11040.10645479167,-0.04667456126472873,0.01270221313524193,-0.009210276313930038,11040.10645479167,2.561139736736711,2.573279251616,-1.49564003248967,-0.02549465000629425,-0.01707906648516655,-0.002882223110646009,-0.004965733271092176,0.009643583558499813,-0.003331073559820652,XArbitraryCorrectedZVertical,0.7288970431547572,-0.01872240419155152,-0.01014458361743791,-0.6842920863817936,0.04041190072894096,0.9971771240234375,0.06328285485506058,28.12393188476562,43.35044097900391,7.095179557800293,1,11020.507618375,unknown,2,2016-03-02 02:44:47.082,2016-03-02 02:41:14.235,128,99.7117,3,4,2016-03-02 02:45:02.625,11038.89149979167,0,-2.536438,97.42982,192.168.1.101,100.78.239.175,2,1,0.37,0
2016-03-02 02:45:06.779,40,234B9614-18C8-49ED-8B56-CAB6C4F40872,my_iOS_device_1,1456908305.999958,40.79922251872792,-96.68586789639357,369.0453,0.73,313.9453125,4,13.18675898878264,-9999,1456908306.756668,28.96997261047363,44.12541198730469,7.3780517578125,282.4932250976562,279.2160949707031,25,11040.17483979167,0.0404052734375,1.0140380859375,0.0753631591796875,11040.17647579167,-0.0467342160731465,0.03079466431680425,-0.003891677300932791,11040.14146479167,2.571758257584571,2.58358758282252,-1.494850313400786,-0.03612325340509415,-0.006452848669141531,-0.003042967058718204,-0.002439397852867842,0.009108098223805428,0.001599661656655371,XArbitraryCorrectedZVertical,0.7292727642561864,-0.01852773743942359,-0.01016922001852653,-0.6838965895687086,0.04017438367009163,0.9971174597740173,0.06436408311128616,28.11924171447754,43.35176086425781,7.105677604675293,1,11020.507618375,unknown,2,2016-03-02 02:44:47.082,2016-03-02 02:41:14.235,128,99.7117,3,4,2016-03-02 02:45:02.625,11038.89149979167,0,-2.536438,97.42982,192.168.1.101,100.78.239.175,2,1,0.37,0
2016-03-02 02:45:06.795,41,234B9614-18C8-49ED-8B56-CAB6C4F40872,my_iOS_device_1,1456908305.999958,40.79922251872792,-96.68586789639357,369.0453,0.73,313.9453125,4,13.18675898878264,-9999,1456908306.756668,28.96997261047363,44.12541198730469,7.3780517578125,282.4932250976562,279.2160949707031,25,11040.20513879167,0.0404205322265625,1.011154174804688,0.0739898681640625,11040.17647579167,-0.0467342160731465,0.03079466431680425,-0.003891677300932791,11040.17647579167,2.583756579133107,2.595445381893215,-1.493644564099117,-0.02555668540298939,0.00101394287776202,0.002434346592053771,0.0003724822599906474,0.01701280660927296,0.009499898180365562,XArbitraryCorrectedZVertical,0.729788993693234,-0.01842973692952132,-0.01017070122880554,-0.6833483199053163,0.04003279283642769,0.9970252513885498,0.06586325913667679,28.1049690246582,43.35148620605469,7.16362190246582,1,11040.20430579167,stationary,1,2016-03-02 02:45:06.791,2016-03-02 02:41:14.235,128,99.7117,3,4,2016-03-02 02:45:02.625,11040.20412179167,0,-2.581573,97.43034,192.168.1.101,100.78.239.175,2,1,0.37,0
2016-03-02 02:45:06.814,42,234B9614-18C8-49ED-8B56-CAB6C4F40872,my_iOS_device_1,1456908305.999958,40.79922251872792,-96.68586789639357,369.0453,0.73,313.9453125,4,13.18675898878264,-9999,1456908306.795927,28.90097236633301,44.47312927246094,7.50994873046875,282.4700927734375,279.1929626464844,25,11040.23542779167,0.0426788330078125,1.004653930664062,0.0820159912109375,11040.21147279167,-0.04455734819811574,0.03823127534474152,-0.007061105314236092,11040.21147279167,2.59185161107748,2.603754441504435,-1.492598246401127,-0.02338213287293911,0.008450806140899658,-0.0007351870881393552,0.0004019863845314831,0.01421008724719286,0.0069003626704216,XArbitraryCorrectedZVertical,0.7302070228702553,-0.01850558152144208,-0.01009549159249513,-0.6829006723184535,0.04001854732632637,0.9969440698623657,0.0670895054936409,28.10518264770508,43.34525299072266,7.200374603271484,1,11040.20430579167,stationary,1,2016-03-02 02:45:06.791,2016-03-02 02:41:14.235,128,99.7117,3,4,2016-03-02 02:45:02.625,11040.20412179167,0,-2.581573,97.43034,192.168.1.101,100.78.239.175,2,1,0.37,0
2016-03-02 02:45:06.859,43,234B9614-18C8-49ED-8B56-CAB6C4F40872,my_iOS_device_1,1456908305.999958,40.79922251872792,-96.68586789639357,369.0453,0.73,313.9453125,4,13.18675898878264,-9999,1456908306.844998,29.00447082519531,44.09066772460938,7.6087646484375,282.4244384765625,279.1473083496094,25,11040.26572479167,0.0441131591796875,1.01214599609375,0.0739288330078125,11040.24647479167,-0.050985686437349,0.03504506941657071,-0.003955593167094693,11040.21147279167,2.59185161107748,2.603754441504435,-1.492598246401127,-0.02338213287293911,0.008450806140899658,-0.0007351870881393552,0.0004019863845314831,0.01421008724719286,0.0069003626704216,XArbitraryCorrectedZVertical,0.7302070228702553,-0.01850558152144208,-0.01009549159249513,-0.6829006723184535,0.04001854732632637,0.9969440698623657,0.0670895054936409,28.10518264770508,43.34525299072266,7.200374603271484,1,11040.20430579167,stationary,1,2016-03-02 02:45:06.791,2016-03-02 02:41:14.235,128,99.7117,3,4,2016-03-02 02:45:02.625,11040.20412179167,0,-2.581573,97.43034,192.168.1.101,100.78.239.175,2,1,0.37,0
2016-03-02 02:45:06.874,44,234B9614-18C8-49ED-8B56-CAB6C4F40872,my_iOS_device_1,1456908305.999958,40.79922251872792,-96.68586789639357,369.0453,0.73,313.9453125,4,13.18675898878264,-9999,1456908306.844998,29.00447082519531,44.09066772460938,7.6087646484375,282.4244384765625,279.1473083496094,25,11040.29600979167,0.043182373046875,1.012161254882812,0.068878173828125,11040.28149979167,-0.04032372101321677,0.02973019882909958,-0.005929528167061424,11040.24647479167,2.600531281982972,2.612611710061439,-1.491155861290703,-0.02981423959136009,0.005264901556074619,0.002371159149333835,0.003400190267711878,0.009471505880355835,0.01432512141764164,XArbitraryCorrectedZVertical,0.7307493680601029,-0.01862005738581328,-0.01008472821417119,-0.6823173402453833,0.04014839231967926,0.9968303442001343,0.06868269294500351,28.10605812072754,43.32637023925781,7.309797286987305,1,11040.20430579167,stationary,1,2016-03-02 02:45:06.791,2016-03-02 02:41:14.235,128,99.7117,3,4,2016-03-02 02:45:02.625,11040.20412179167,0,-2.581573,97.43034,192.168.1.101,100.78.239.175,2,1,0.37,0
2016-03-02 02:45:06.904,45,234B9614-18C8-49ED-8B56-CAB6C4F40872,my_iOS_device_1,1456908305.999958,40.79922251872792,-96.68586789639357,369.0453,0.73,313.9453125,4,13.18675898878264,-9999,1456908306.844998,29.00447082519531,44.09066772460938,7.6087646484375,282.4244384765625,279.1473083496094,25,11040.32631379167,0.0484771728515625,1.009765625,0.07470703125,11040.31653079167,-0.04034475998582839,0.02122592652014954,-0.004859736357176594,11040.28149979167,2.606527598264946,2.618785926514111,-1.490161297290415,-0.01915356889367104,-4.978596916771494e-05,0.0003976704610977322,0.0009343790006823838,0.01525790989398956,-0.000253909092862159,XArbitraryCorrectedZVertical,0.7311251248809036,-0.01871248758599623,-0.01005163871011968,-0.6819126477309583,0.04021857678890228,0.9967507719993591,0.06978821009397507,28.10948944091797,43.31606292724609,7.357539176940918,1,11040.20430579167,stationary,1,2016-03-02 02:45:06.791,2016-03-02 02:41:14.235,128,99.7117,3,4,2016-03-02 02:45:02.625,11040.20412179167,0,-2.581573,97.43034,192.168.1.101,100.78.239.175,2,1,0.37,0
2016-03-02 02:45:06.938,46,234B9614-18C8-49ED-8B56-CAB6C4F40872,my_iOS_device_1,1456908305.999958,40.79922251872792,-96.68586789639357,369.0453,0.73,313.9453125,4,13.18675898878264,-9999,1456908306.906225,28.90097236633301,44.055908203125,7.37799072265625,282.3735046386719,279.0963745117188,25,11040.35661779167,0.0427703857421875,1.012893676757812,0.07421875,11040.35154379167,-0.04773183621749019,0.02120861597306403,-0.009229983705996623,11040.31653079167,2.606827610788665,2.618845918145882,-1.48954095393308,-0.01917434670031071,-0.008553941734135151,0.001468696049414575,0.006641828920692205,0.0123936403542757,0.00146624178159982,XArbitraryCorrectedZVertical,0.7313085712862279,-0.01873376490213861,-0.01024260203382914,-0.6817124824436191,0.04052308946847916,0.9967005848884583,0.07032635807991028,28.114990234375,43.30644989013672,7.392999649047852,1,11040.20430579167,stationary,1,2016-03-02 02:45:06.791,2016-03-02 02:41:14.235,128,99.7117,3,4,2016-03-02 02:45:02.625,11040.20412179167,0,-2.581573,97.43034,192.168.1.101,100.78.239.175,2,1,0.37,0
2016-03-02 02:45:06.965,47,234B9614-18C8-49ED-8B56-CAB6C4F40872,my_iOS_device_1,1456908305.999958,40.79922251872792,-96.68586789639357,369.0453,0.73,313.9453125,4,13.18675898878264,-9999,1456908306.963321,28.86647033691406,43.81248474121094,7.41094970703125,282.319091796875,279.0419616699219,25,11040.38691779167,0.0408172607421875,1.010940551757812,0.080047607421875,11040.35154379167,-0.04773183621749019,0.02120861597306403,-0.009229983705996623,11040.35154379167,2.610821301269405,2.622553421699966,-1.488717168882125,-0.02656193636357784,-0.008571138605475426,-0.002900560386478901,0.002131554996594787,0.01261342968791723,-0.0005408286233432591,XArbitraryCorrectedZVertical,0.7316047174307957,-0.01868283738090609,-0.01039400816426622,-0.6813937581271666,0.04066934809088707,0.9966334104537964,0.0711890235543251,28.13234710693359,43.29010391235352,7.422661781311035,1,11040.20430579167,stationary,1,2016-03-02 02:45:06.791,2016-03-02 02:41:14.235,128,99.7117,3,4,2016-03-02 02:45:02.625,11040.20412179167,0,-2.581573,97.43034,192.168.1.101,100.78.239.175,2,1,0.37,0
2016-03-02 02:45:07.018,48,234B9614-18C8-49ED-8B56-CAB6C4F40872,my_iOS_device_1,1456908305.999958,40.79922251872792,-96.68586789639357,369.0453,0.73,313.9453125,4,13.18675898878264,-9999,1456908306.963321,28.86647033691406,43.81248474121094,7.41094970703125,282.319091796875,279.0419616699219,25,11040.41719579167,0.0423126220703125,1.0084228515625,0.0756988525390625,11040.38655179167,-0.03605254325694768,0.01271313209571126,-0.007990282218564739,11040.38655179167,2.616206621701591,2.627461360035003,-1.487941481908658,-0.01488389540463686,-0.01706637442111969,-0.001660701702348888,1.081073423847556e-05,0.01359285321086645,0.007315343245863914,XArbitraryCorrectedZVertical,0.7319066999742395,-0.01852083257926278,-0.01056940091688684,-0.6810711042597727,0.04069963842630386,0.9965695142745972,0.07206087559461594,28.13243675231934,43.287109375,7.439752578735352,1,11040.20430579167,stationary,1,2016-03-02 02:45:06.791,2016-03-02 02:41:14.235,128,99.7117,3,4,2016-03-02 02:45:02.625,11040.20412179167,0,-2.581573,97.43034,192.168.1.101,100.78.239.175,2,1,0.37,0
2016-03-02 02:45:07.025,49,234B9614-18C8-49ED-8B56-CAB6C4F40872,my_iOS_device_1,1456908305.999958,40.79922251872792,-96.68586789639357,369.0453,0.73,313.9453125,4,13.18675898878264,-9999,1456908307.023306,29.7979679107666,44.19496154785156,7.5758056640625,282.2609558105469,278.9838256835938,25,11040.44749879167,0.037261962890625,1.0067138671875,0.078887939453125,11040.42155579167,-0.03077815271804575,0.01272591526894364,-0.00471645829053033,11040.42155579167,2.619346689765141,2.629954773279423,-1.487331930447555,-0.009611169807612896,-0.01705332845449448,0.001613607746548951,0.001495378674007952,0.01190398260951042,0.003007060382515192,XArbitraryCorrectedZVertical,0.732127046815623,-0.01832712232957433,-0.01083264055739971,-0.6808353382475713,0.04081724211573601,0.9965188503265381,0.07269179075956345,28.13575553894043,43.28249359130859,7.454036712646484,1,11040.20430579167,stationary,1,2016-03-02 02:45:06.791,2016-03-02 02:41:14.235,128,99.7117,3,4,2016-03-02 02:45:02.625,11040.20412179167,0,-2.581573,97.43034,192.168.1.101,100.78.239.175,2,1,0.37,0
2016-03-02 02:45:07.056,50,234B9614-18C8-49ED-8B56-CAB6C4F40872,my_iOS_device_1,1456908305.999958,40.79922251872792,-96.68586789639357,369.0453,0.73,313.9453125,4,13.18675898878264,-9999,1456908307.023306,29.7979679107666,44.19496154785156,7.5758056640625,282.2609558105469,278.9838256835938,25,11040.47779679167,0.0348663330078125,1.013351440429688,0.080078125,11040.45655479167,-0.04031866100714562,0.01696646667267681,-0.006988667332585937,11040.42155579167,2.619346689765141,2.629954773279423,-1.487331930447555,-0.009611169807612896,-0.01705332845449448,0.001613607746548951,0.001495378674007952,0.01190398260951042,0.003007060382515192,XArbitraryCorrectedZVertical,0.732127046815623,-0.01832712232957433,-0.01083264055739971,-0.6808353382475713,0.04081724211573601,0.9965188503265381,0.07269179075956345,28.13575553894043,43.28249359130859,7.454036712646484,1,11040.20430579167,stationary,1,2016-03-02 02:45:06.791,2016-03-02 02:41:14.235,128,99.7117,3,4,2016-03-02 02:45:02.625,11040.20412179167,0,-2.581573,97.43034,192.168.1.101,100.78.239.175,2,1,0.37,0
2016-03-02 02:45:07.102,51,234B9614-18C8-49ED-8B56-CAB6C4F40872,my_iOS_device_1,1456908306.999958,40.79923274464979,-96.68587359608773,369.1355,0.73,317.4609375,4,12.31902438511201,-9999,1456908307.080729,29.79796600341797,44.19496154785156,8.037353515625,282.2216186523438,278.9444885253906,25,11040.50807679167,0.0412750244140625,1.010116577148438,0.08251953125,11040.49158379167,-0.03604215692869638,0.02653733499820358,-0.007997206437398945,11040.49158379167,2.635146739725243,2.645113945344928,-1.486162808998722,-0.01487835962325335,-0.003241094993427396,-0.001670030644163489,-0.003522408660501242,0.01307024527341127,0.01312160864472389,XArbitraryCorrectedZVertical,0.7326955910818566,-0.01790045658417641,-0.01085891645378841,-0.680234392247787,0.04026557132601738,0.9964207410812378,0.07432650774717331,28.13142204284668,43.27638244628906,7.505709648132324,1,11040.20430579167,stationary,1,2016-03-02 02:45:06.791,2016-03-02 02:41:14.235,128,99.7117,3,4,2016-03-02 02:45:02.625,11040.20412179167,0,-2.581573,97.43034,192.168.1.101,100.78.239.175,2,1,0.37,0
2016-03-02 02:45:07.116,52,234B9614-18C8-49ED-8B56-CAB6C4F40872,my_iOS_device_1,1456908306.999958,40.79923274464979,-96.68587359608773,369.1355,0.73,317.4609375,4,12.31902438511201,-9999,1456908307.080729,29.79796600341797,44.19496154785156,8.037353515625,282.2216186523438,278.9444885253906,25,11040.53838179167,0.0393829345703125,1.006591796875,0.0715484619140625,11040.52659679167,-0.02536581043467772,0.04036366842956796,-0.009980728817289961,11040.49158379167,2.635146739725243,2.645113945344928,-1.486162808998722,-0.01487835962325335,-0.003241094993427396,-0.001670030644163489,-0.003522408660501242,0.01307024527341127,0.01312160864472389,XArbitraryCorrectedZVertical,0.7326955910818566,-0.01790045658417641,-0.01085891645378841,-0.680234392247787,0.04026557132601738,0.9964207410812378,0.07432650774717331,28.13142204284668,43.27638244628906,7.505709648132324,1,11040.53120979167,unknown,1,2016-03-02 02:45:07.114,2016-03-02 02:41:14.235,128,99.7117,3,4,2016-03-02 02:45:02.625,11040.20412179167,0,-2.581573,97.43034,192.168.1.101,100.78.239.175,2,1,0.37,0
2016-03-02 02:45:07.147,53,234B9614-18C8-49ED-8B56-CAB6C4F40872,my_iOS_device_1,1456908306.999958,40.79923274464979,-96.68587359608773,369.1355,0.73,317.4609375,4,12.31902438511201,-9999,1456908307.139457,29.62546539306641,44.16020202636719,8.333984375,282.1911010742188,278.9139709472656,25,11040.56867479167,0.0425262451171875,1.01263427734375,0.0830078125,11040.52659679167,-0.02536581043467772,0.04036366842956796,-0.009980728817289961,11040.52659679167,2.640511814532239,2.650601211492231,-1.485604462888773,-0.00420432910323143,0.010585549287498,-0.003654033411294222,-0.003101608948782086,0.01365165691822767,0.006078771315515041,XArbitraryCorrectedZVertical,0.7329380929314324,-0.01789490253636315,-0.0107671230494605,-0.6799747005988279,0.04011943191289902,0.9963733553886414,0.07503695040941238,28.1214542388916,43.278564453125,7.530452251434326,1,11040.53120979167,unknown,1,2016-03-02 02:45:07.114,2016-03-02 02:41:14.235,128,99.7117,3,4,2016-03-02 02:45:02.625,11040.20412179167,0,-2.581573,97.43034,192.168.1.101,100.78.239.175,2,1,0.37,0
2016-03-02 02:45:07.178,54,234B9614-18C8-49ED-8B56-CAB6C4F40872,my_iOS_device_1,1456908306.999958,40.79923274464979,-96.68587359608773,369.1355,0.73,317.4609375,4,12.31902438511201,-9999,1456908307.139457,29.62546539306641,44.16020202636719,8.333984375,282.1911010742188,278.9139709472656,25,11040.59896779167,0.0370330810546875,1.007034301757812,0.0872802734375,11040.56161679167,-0.03288950683026057,0.03399232183766239,-0.004758003603535567,11040.56161679167,2.642054059640403,2.652512140806244,-1.485491801058695,-0.01172706019133329,0.004214405547827482,0.001568579464219511,0.002543315757066011,0.01416478957980871,0.001447583897970617,XArbitraryCorrectedZVertical,0.7329954630447009,-0.01799825903978401,-0.01061003811014896,-0.6799125979997002,0.04002870619297028,0.9963637590408325,0.07521257549524307,28.11082077026367,43.27934646606445,7.565564155578613,1,11040.53120979167,unknown,1,2016-03-02 02:45:07.114,2016-03-02 02:41:14.235,128,99.7117,3,4,2016-03-02 02:45:02.625,11040.20412179167,0,-2.581573,97.43034,192.168.1.101,100.78.239.175,2,1,0.37,0
2016-03-02 02:45:07.207,55,234B9614-18C8-49ED-8B56-CAB6C4F40872,my_iOS_device_1,1456908306.999958,40.79923274464979,-96.68587359608773,369.1355,0.73,317.4609375,4,12.31902438511201,-9999,1456908307.198273,28.7974681854248,44.36882019042969,7.93841552734375,282.1606140136719,278.8834838867188,25,11040.62925979167,0.034820556640625,1.008407592773438,0.0891876220703125,11040.59662779167,-0.02752323723375091,0.03930452926404344,-0.007880027349435458,11040.59662779167,2.644837213331904,2.655480967218404,-1.484863518755472,-0.006367419846355915,0.009532050229609013,-0.001554254209622741,0.0001397372107021511,0.0120975449681282,0.01112107187509537,XArbitraryCorrectedZVertical,0.7332223038460041,-0.01809212669000417,-0.0105728377337282,-0.6796660527029625,0.04009769111871719,0.9963100552558899,0.07588454335927963,28.10786056518555,43.27946853637695,7.575864791870117,1,11040.53120979167,unknown,1,2016-03-02 02:45:07.114,2016-03-02 02:41:14.235,128,99.7117,3,4,2016-03-02 02:45:02.625,11040.20412179167,0,-2.581573,97.43034,192.168.1.101,100.78.239.175,2,1,0.37,0
2016-03-02 02:45:07.259,56,234B9614-18C8-49ED-8B56-CAB6C4F40872,my_iOS_device_1,1456908306.999958,40.79923274464979,-96.68587359608773,369.1355,0.73,317.4609375,4,12.31902438511201,-9999,1456908307.198273,28.7974681854248,44.36882019042969,7.93841552734375,282.1606140136719,278.8834838867188,25,11040.65955179167,0.041168212890625,1.01190185546875,0.0818328857421875,11040.63164379167,-0.02439082715959971,0.03931864401782086,-0.003571565337905266,11040.63164379167,2.652867306097887,2.663974923182755,-1.484291952242279,-0.003238789737224579,0.009546764194965363,0.002752172760665417,-0.00489288754761219,0.01214676350355148,0.01245951373130083,XArbitraryCorrectedZVertical,0.7335089844108126,-0.01812799355259397,-0.0102811080789824,-0.6793601728501774,0.03971344232559204,0.9962608218193054,0.07672810554504395,28.10220718383789,43.27192687988281,7.639649868011475,1,11040.53120979167,unknown,1,2016-03-02 02:45:07.114,2016-03-02 02:41:14.235,128,99.7117,3,4,2016-03-02 02:45:02.625,11040.20412179167,0,-2.581573,97.43034,192.168.1.101,100.78.239.175,2,1,0.37,0
2016-03-02 02:45:07.268,57,234B9614-18C8-49ED-8B56-CAB6C4F40872,my_iOS_device_1,1456908306.999958,40.79923274464979,-96.68587359608773,369.1355,0.73,317.4609375,4,12.31902438511201,-9999,1456908307.259185,28.8664665222168,44.02110290527344,8.13616943359375,282.1271057128906,278.8499755859375,25,11040.68982879167,0.0516510009765625,1.002899169921875,0.082183837890625,11040.66665479167,-0.01908208184263576,0.02656183608023231,-0.003487942079676778,11040.63164379167,2.652867306097887,2.663974923182755,-1.484291952242279,-0.003238789737224579,0.009546764194965363,0.002752172760665417,-0.00489288754761219,0.01214676350355148,0.01245951373130083,XArbitraryCorrectedZVertical,0.7335089844108126,-0.01812799355259397,-0.0102811080789824,-0.6793601728501774,0.03971344232559204,0.9962608218193054,0.07672810554504395,28.10220718383789,43.27192687988281,7.639649868011475,1,11040.53120979167,unknown,1,2016-03-02 02:45:07.114,2016-03-02 02:41:14.235,128,99.7117,3,4,2016-03-02 02:45:02.625,11040.20412179167,0,-2.581573,97.43034,192.168.1.101,100.78.239.175,2,1,0.37,0
2016-03-02 02:45:07.298,58,234B9614-18C8-49ED-8B56-CAB6C4F40872,my_iOS_device_1,1456908306.999958,40.79923274464979,-96.68587359608773,369.1355,0.73,317.4609375,4,12.31902438511201,-9999,1456908307.259185,28.8664665222168,44.02110290527344,8.13616943359375,282.1271057128906,278.8499755859375,25,11040.72011279167,0.050384521484375,1.006515502929688,0.0881195068359375,11040.70166579167,-0.02234258996521977,-0.007460579477747978,-0.0003206445952455403,11040.66665479167,2.654620270513273,2.665916738967452,-1.483962991704871,0.002067696768790483,-0.003209750633686781,0.002835353370755911,0.001453756936825812,0.01566950045526028,0.004736462607979774,XArbitraryCorrectedZVertical,0.7336327616185346,-0.01819842273194185,-0.01021818307226379,-0.6792255716805077,0.03971445560455322,0.9962323307991028,0.07709642499685287,28.09014892578125,43.27218246459961,7.682425498962402,1,11040.53120979167,unknown,1,2016-03-02 02:45:07.114,2016-03-02 02:41:14.235,128,99.7117,3,4,2016-03-02 02:45:02.625,11040.20412179167,0,-2.581573,97.43034,192.168.1.101,100.78.239.175,2,1,0.37,0
2016-03-02 02:45:07.337,59,234B9614-18C8-49ED-8B56-CAB6C4F40872,my_iOS_device_1,1456908306.999958,40.79923274464979,-96.68587359608773,369.1355,0.73,317.4609375,4,12.31902438511201,-9999,1456908307.315942,29.07346534729004,43.74295043945312,8.0042724609375,282.0911865234375,278.8140563964844,25,11040.75042579167,0.0449066162109375,1.009552001953125,0.09295654296875,11040.70166579167,-0.02234258996521977,-0.007460579477747978,-0.0003206445952455403,11040.70166579167,2.646618641882619,2.657114065198787,-1.48341529798721,-0.001194370910525322,-0.03723238408565521,0.006006487179547548,0.01515570934861898,0.004334092605859041,0.006452525500208139,XArbitraryCorrectedZVertical,0.7336762499822741,-0.01823450022739628,-0.010820231328546,-0.6791683044778964,0.04064568132162094,0.9961847066879272,0.0772266760468483,28.0989875793457,43.26659774780273,7.681539058685303,1,11040.53120979167,unknown,1,2016-03-02 02:45:07.114,2016-03-02 02:41:14.235,128,99.7117,3,4,2016-03-02 02:45:02.625,11040.20412179167,0,-2.581573,97.43034,192.168.1.101,100.78.239.175,2,1,0.37,0
2016-03-02 02:45:07.359,60,234B9614-18C8-49ED-8B56-CAB6C4F40872,my_iOS_device_1,1456908306.999958,40.79923274464979,-96.68587359608773,369.1355,0.73,317.4609375,4,12.31902438511201,-9999,1456908307.315942,29.07346534729004,43.74295043945312,8.0042724609375,282.0911865234375,278.8140563964844,25,11040.78071479167,0.031890869140625,1.012435913085938,0.0886077880859375,11040.73668179167,-0.04251710048700603,-0.01918195038351373,-0.003804858249396208,11040.73668179167,2.645229681680548,2.654151776442111,-1.482165862704322,-0.0213719867169857,-0.0489538237452507,0.002525218296796083,0.009675001725554466,0.01108148135244846,0.01496458891779184,XArbitraryCorrectedZVertical,0.7340168361915644,-0.01794638949069052,-0.01164373048213872,-0.6787942507358269,0.04145720228552818,0.996074914932251,0.07820557802915573,28.12224006652832,43.25370025634766,7.669095993041992,1,11040.53120979167,unknown,1,2016-03-02 02:45:07.114,2016-03-02 02:41:14.235,128,99.7117,3,4,2016-03-02 02:45:02.625,11040.20412179167,0,-2.581573,97.43034,192.168.1.101,100.78.239.175,2,1,0.37,0
2016-03-02 02:45:07.419,61,234B9614-18C8-49ED-8B56-CAB6C4F40872,my_iOS_device_1,1456908306.999958,40.79923274464979,-96.68587359608773,369.1355,0.73,317.4609375,4,12.31902438511201,-9999,1456908307.374725,29.1424674987793,43.32568359375,8.13616943359375,282.0607299804688,278.7835998535156,25,11040.81100079167,0.0368804931640625,1.010421752929688,0.092742919921875,11040.80670379167,-0.02980290312685874,-0.007463242638838057,0.0006367618166379459,11040.77169279167,2.652428492236011,2.659720915833461,-1.480493624560391,-0.02137739583849907,-0.03828964754939079,0.004650409799069166,-0.006178888492286205,0.01680034957826138,0.0162650104612112,XArbitraryCorrectedZVertical,0.7346089954496826,-0.01746974675721616,-0.01231849125931214,-0.6781538811550962,0.04179290309548378,0.9959254860877991,0.07991113513708115,28.19643783569336,43.2032585144043,7.680950164794922,1,11040.53120979167,unknown,1,2016-03-02 02:45:07.114,2016-03-02 02:41:14.235,128,99.7117,3,4,2016-03-02 02:45:02.625,11040.20412179167,0,-2.581573,97.43034,192.168.1.101,100.78.239.175,2,1,0.37,0
2016-03-02 02:45:07.421,62,234B9614-18C8-49ED-8B56-CAB6C4F40872,my_iOS_device_1,1456908306.999958,40.79923274464979,-96.68587359608773,369.1355,0.73,317.4609375,4,12.31902438511201,-9999,1456908307.374725,29.1424674987793,43.32568359375,8.13616943359375,282.0607299804688,278.7835998535156,25,11040.84128779167,0.0344696044921875,1.009689331054688,0.0883331298828125,11040.80670379167,-0.02980290312685874,-0.007463242638838057,0.0006367618166379459,11040.80670379167,2.658136644237117,2.664118063991209,-1.479859562187877,-0.008643859997391701,-0.03721015155315399,0.006964032538235188,-0.006498754024505615,0.01371441874653101,0.008807309903204441,XArbitraryCorrectedZVertical,0.7348738621262475,-0.01696737347214565,-0.01274224852952315,-0.6778717799875585,0.04173129796981812,0.9958680868148804,0.08065497130155563,28.19643783569336,43.2032585144043,7.680950164794922,1,11040.53120979167,unknown,1,2016-03-02 02:45:07.114,2016-03-02 02:41:14.235,128,99.7117,3,4,2016-03-02 02:45:02.625,11040.20412179167,0,-2.581573,97.43034,192.168.1.101,100.78.239.175,2,1,0.37,0
2016-03-02 02:45:07.450,63,234B9614-18C8-49ED-8B56-CAB6C4F40872,my_iOS_device_1,1456908306.999958,40.79923274464979,-96.68587359608773,369.1355,0.73,317.4609375,4,12.31902438511201,-9999,1456908307.433526,29.17696952819824,43.29092407226562,8.23504638671875,282.0265197753906,278.7493896484375,25,11040.87157679167,0.0374298095703125,1.008316040039062,0.0869140625,11040.84171979167,-0.02228346778902001,0.01273523633275892,-0.003527356863809951,11040.84171979167,2.666413385553727,2.671625881930403,-1.479236557478187,-0.001128628384321928,-0.01701074279844761,0.002796927001327276,-0.006935938261449337,0.0138779990375042,0.006813975051045418,XArbitraryCorrectedZVertical,0.7351768459543813,-0.0165705311891003,-0.0128886054849694,-0.6775502243504248,0.04140554368495941,0.9958113431930542,0.08151915669441223,28.19539451599121,43.19791412353516,7.714792728424072,1,11040.53120979167,unknown,1,2016-03-02 02:45:07.114,2016-03-02 02:41:14.235,128,99.7117,3,4,2016-03-02 02:45:02.625,11040.20412179167,0,-2.581573,97.43034,192.168.1.101,100.78.239.175,2,1,0.37,0
2016-03-02 02:45:07.498,64,234B9614-18C8-49ED-8B56-CAB6C4F40872,my_iOS_device_1,1456908306.999958,40.79923274464979,-96.68587359608773,369.1355,0.73,317.4609375,4,12.31902438511201,-9999,1456908307.492427,29.45297050476074,43.49957275390625,7.90533447265625,281.9783325195312,278.7012023925781,25,11040.90186679167,0.042236328125,1.008773803710938,0.085968017578125,11040.87672979167,-0.02226322776473541,0.02017610841844031,-0.004596616041476765,11040.84171979167,2.666413385553727,2.671625881930403,-1.479236557478187,-0.001128628384321928,-0.01701074279844761,0.002796927001327276,-0.006935938261449337,0.0138779990375042,0.006813975051045418,XArbitraryCorrectedZVertical,0.7351768459543813,-0.0165705311891003,-0.0128886054849694,-0.6775502243504248,0.04140554368495941,0.9958113431930542,0.08151915669441223,28.19539451599121,43.19791412353516,7.714792728424072,1,11040.53120979167,unknown,1,2016-03-02 02:45:07.114,2016-03-02 02:41:14.235,128,99.7117,3,4,2016-03-02 02:45:02.625,11040.20412179167,0,-2.581573,97.43034,192.168.1.101,100.78.239.175,2,1,0.37,0
2016-03-02 02:45:07.510,65,234B9614-18C8-49ED-8B56-CAB6C4F40872,my_iOS_device_1,1456908306.999958,40.79923274464979,-96.68587359608773,369.1355,0.73,317.4609375,4,12.31902438511201,-9999,1456908307.492427,29.45297050476074,43.49957275390625,7.90533447265625,281.9783325195312,278.7012023925781,25,11040.93215779167,0.0454254150390625,1.011383056640625,0.0794830322265625,11040.91174179167,-0.01379863655602756,0.01912788821338512,-0.001275920478256963,11040.87672979167,2.669334988656911,2.674128536606227,-1.478969550397309,-0.001110248034819961,-0.009569428861141205,0.001726513262838125,-0.003891404019668698,0.012529157102108,0.005054180044680834,XArbitraryCorrectedZVertical,0.7352968147785502,-0.01638705276003126,-0.01300107776580731,-0.6774223428964128,0.04132121428847313,0.9957869052886963,0.08185987919569016,28.19289207458496,43.19908905029297,7.717355728149414,1,11040.53120979167,unknown,1,2016-03-02 02:45:07.114,2016-03-02 02:41:14.235,128,99.7117,3,4,2016-03-02 02:45:02.625,11040.20412179167,0,-2.581573,97.43034,192.168.1.101,100.78.239.175,2,1,0.37,0
2016-03-02 02:45:07.548,66,234B9614-18C8-49ED-8B56-CAB6C4F40872,my_iOS_device_1,1456908306.999958,40.79923274464979,-96.68587359608773,369.1355,0.73,317.4609375,4,12.31902438511201,-9999,1456908307.492427,29.45297050476074,43.49957275390625,7.90533447265625,281.9783325195312,278.7012023925781,25,11040.96242779167,0.04180908203125,1.0115966796875,0.080596923828125,11040.94673279167,-0.004227235598282775,0.01700827830179106,-0.001135838204918795,11040.91174179167,2.669904283914827,2.674448453976303,-1.478758929714289,0.007397670764476061,-0.01053425762802362,0.005046854726970196,0.0008468551095575094,0.01300625596195459,0.003907659556716681,XArbitraryCorrectedZVertical,0.7353664696661989,-0.01631975274777693,-0.01310994378795462,-0.677346255865328,0.04138947278261185,0.9957675337791443,0.08206035941839218,28.18891716003418,43.19977569580078,7.728021621704102,1,11040.53120979167,unknown,1,2016-03-02 02:45:07.114,2016-03-02 02:41:14.235,128,99.7117,3,4,2016-03-02 02:45:02.625,11040.20412179167,0,-2.581573,97.43034,192.168.1.101,100.78.239.175,2,1,0.37,0
2016-03-02 02:45:07.579,67,234B9614-18C8-49ED-8B56-CAB6C4F40872,my_iOS_device_1,1456908306.999958,40.79923274464979,-96.68587359608773,369.1355,0.73,317.4609375,4,12.31902438511201,-9999,1456908307.551528,29.45297050476074,44.055908203125,7.64166259765625,281.919677734375,278.6425476074219,25,11040.99271979167,0.0461883544921875,1.008438110351562,0.0757598876953125,11040.94673279167,-0.004227235598282775,0.01700827830179106,-0.001135838204918795,11040.94673279167,2.663954790056925,2.668058028264133,-1.479094218857193,0.01696970872581005,-0.01265379041433334,0.005187637638300657,0.001513159601017833,0.01646975986659527,0.0007020449265837669,XArbitraryCorrectedZVertical,0.7351756318946869,-0.01628852770471821,-0.01339015150594209,-0.677548653585916,0.04176076501607895,0.9957982897758484,0.08149705082178116,28.19590950012207,43.19682693481445,7.718971252441406,1,11040.53120979167,unknown,1,2016-03-02 02:45:07.114,2016-03-02 02:41:14.235,128,99.7117,3,4,2016-03-02 02:45:02.625,11040.20412179167,0,-2.581573,97.43034,192.168.1.101,100.78.239.175,2,1,0.37,0
2016-03-02 02:45:07.600,68,234B9614-18C8-49ED-8B56-CAB6C4F40872,my_iOS_device_1,1456908306.999958,40.79923274464979,-96.68587359608773,369.1355,0.73,317.4609375,4,12.31902438511201,-9999,1456908307.551528,29.45297050476074,44.055908203125,7.64166259765625,281.919677734375,278.6425476074219,25,11041.02302579167,0.04595947265625,1.010284423828125,0.07122802734375,11040.98176779167,0.007428355228558019,0.01596245494171694,0.002231196361268386,11040.98176779167,2.657720425551366,2.661393775197518,-1.479879501553018,0.02862560003995895,-0.01369938440620899,0.008554244413971901,-0.001368577242828906,0.01659651845693588,-0.0002316234458703548,XArbitraryCorrectedZVertical,0.7348465492706572,-0.01619366465525304,-0.01359889898068948,-0.6779036688177256,0.04194169864058495,0.9958699345588684,0.08052337169647217,28.21256637573242,43.19387054443359,7.674527168273926,1,11040.53120979167,unknown,1,2016-03-02 02:45:07.114,2016-03-02 02:41:14.235,128,99.7117,3,4,2016-03-02 02:45:02.625,11040.20412179167,0,-2.581573,97.43034,192.168.1.101,100.78.239.175,2,1,0.37,0
2016-03-02 02:45:07.634,69,234B9614-18C8-49ED-8B56-CAB6C4F40872,my_iOS_device_1,1456908306.999958,40.79923274464979,-96.68587359608773,369.1355,0.73,317.4609375,4,12.31902438511201,-9999,1456908307.609713,29.48746871948242,44.16021728515625,7.542724609375,281.8521728515625,278.5750427246094,25,11041.05331679167,0.0507354736328125,1.0059814453125,0.0758209228515625,11041.01677479167,-0.009480320848464072,0.006355633941474102,-0.00653539731505445,11041.01677479167,2.649516327538587,2.652483750389604,-1.480805430865143,0.01171880960464478,-0.02330614626407623,-0.0002117325930157676,0.002850234275683761,0.01230145338922739,-0.00575457327067852,XArbitraryCorrectedZVertical,0.7344447959795526,-0.01603336541400027,-0.01393720508772406,-0.6783358513055137,0.0422242283821106,0.9959535598754883,0.07933245599269867,28.21857643127441,43.19598388671875,7.640461921691895,1,11040.53120979167,unknown,1,2016-03-02 02:45:07.114,2016-03-02 02:41:14.235,128,99.7117,3,4,2016-03-02 02:45:02.625,11040.20412179167,0,-2.581573,97.43034,192.168.1.101,100.78.239.175,2,1,0.37,0
2016-03-02 02:45:07.662,70,234B9614-18C8-49ED-8B56-CAB6C4F40872,my_iOS_device_1,1456908306.999958,40.79923274464979,-96.68587359608773,369.1355,0.73,317.4609375,4,12.31902438511201,-9999,1456908307.609713,29.48746871948242,44.16021728515625,7.542724609375,281.8521728515625,278.5750427246094,25,11041.08360979167,0.043365478515625,1.012954711914062,0.0778656005859375,11041.05179479167,-0.01169793508817305,0.003181412238208658,-0.0001715075742011029,11041.01677479167,2.649516327538587,2.652483750389604,-1.480805430865143,0.01171880960464478,-0.02330614626407623,-0.0002117325930157676,0.002850234275683761,0.01230145338922739,-0.00575457327067852,XArbitraryCorrectedZVertical,0.7344447959795526,-0.01603336541400027,-0.01393720508772406,-0.6783358513055137,0.0422242283821106,0.9959535598754883,0.07933245599269867,28.21857643127441,43.19598388671875,7.640461921691895,1,11040.53120979167,unknown,1,2016-03-02 02:45:07.114,2016-03-02 02:41:14.235,128,99.7117,3,4,2016-03-02 02:45:02.625,11040.20412179167,0,-2.581573,97.43034,192.168.1.101,100.78.239.175,2,1,0.37,0
2016-03-02 02:45:07.699,71,234B9614-18C8-49ED-8B56-CAB6C4F40872,my_iOS_device_1,1456908306.999958,40.79923274464979,-96.68587359608773,369.1355,0.73,317.4609375,4,12.31902438511201,-9999,1456908307.668585,29.59097290039062,44.12545776367188,7.77349853515625,281.7984313964844,278.5213012695312,25,11041.11390079167,0.0455322265625,1.00872802734375,0.081024169921875,11041.08680579167,-0.01057967374644878,-0.002146507838603866,-0.004415521087351377,11041.08680579167,2.637201236157543,2.63829468526807,-1.481572660540041,0.01069695316255093,-0.03169349581003189,0.001910749822854996,0.0003884480684064329,0.01693250238895416,-0.0001903714728541672,XArbitraryCorrectedZVertical,0.7340192634224632,-0.01561111638470544,-0.01483870041737761,-0.6787870262017901,0.04297703132033348,0.9960222244262695,0.0780559703707695,28.26156044006348,43.1933708190918,7.495010852813721,1,11040.53120979167,unknown,1,2016-03-02 02:45:07.114,2016-03-02 02:41:14.235,128,99.7117,3,4,2016-03-02 02:45:02.625,11040.20412179167,0,-2.581573,97.43034,192.168.1.101,100.78.239.175,2,1,0.37,0
2016-03-02 02:45:07.739,72,234B9614-18C8-49ED-8B56-CAB6C4F40872,my_iOS_device_1,1456908306.999958,40.79923274464979,-96.68587359608773,369.1355,0.73,317.4609375,4,12.31902438511201,-9999,1456908307.728697,29.45297241210938,44.05593872070312,7.7076416015625,281.7459411621094,278.4688110351562,25,11041.14419279167,0.042083740234375,1.00885009765625,0.07806396484375,11041.12181679167,-0.01381381657424101,-0.001076716028719036,-0.001265800466114662,11041.08680579167,2.637201236157543,2.63829468526807,-1.481572660540041,0.01069695316255093,-0.03169349581003189,0.001910749822854996,0.0003884480684064329,0.01693250238895416,-0.0001903714728541672,XArbitraryCorrectedZVertical,0.7340192634224632,-0.01561111638470544,-0.01483870041737761,-0.6787870262017901,0.04297703132033348,0.9960222244262695,0.0780559703707695,28.26156044006348,43.1933708190918,7.495010852813721,1,11040.53120979167,unknown,1,2016-03-02 02:45:07.114,2016-03-02 02:41:14.235,128,99.7117,3,4,2016-03-02 02:45:02.625,11040.20412179167,0,-2.581573,97.43034,192.168.1.101,100.78.239.175,2,1,0.37,0
2016-03-02 02:45:07.755,73,234B9614-18C8-49ED-8B56-CAB6C4F40872,my_iOS_device_1,1456908306.999958,40.79923274464979,-96.68587359608773,369.1355,0.73,317.4609375,4,12.31902438511201,-9999,1456908307.728697,29.45297241210938,44.05593872070312,7.7076416015625,281.7459411621094,278.4688110351562,25,11041.17447079167,0.0380401611328125,1.013198852539062,0.0764007568359375,11041.15681679167,-0.01371314908503601,0.01592011068038468,-0.007667507094447135,11041.12181679167,2.63309188075982,2.633005572564329,-1.481910622271188,0.007463070563971996,-0.03062358126044273,0.005060710478574038,0.002306868555024266,0.0126757612451911,0.003490616334602237,XArbitraryCorrectedZVertical,0.7338485735276007,-0.0152659084834522,-0.01532687733231137,-0.6789685633377287,0.04322535917162895,0.9960522651672363,0.0775335505604744,28.28048515319824,43.19102478027344,7.436890602111816,1,11040.53120979167,unknown,1,2016-03-02 02:45:07.114,2016-03-02 02:41:14.235,128,99.7117,3,4,2016-03-02 02:45:02.625,11040.20412179167,0,-2.581573,97.43034,192.168.1.101,100.78.239.175,2,1,0.37,0
2016-03-02 02:45:07.789,74,234B9614-18C8-49ED-8B56-CAB6C4F40872,my_iOS_device_1,1456908306.999958,40.79923274464979,-96.68587359608773,369.1355,0.73,317.4609375,4,12.31902438511201,-9999,1456908307.728697,29.45297241210938,44.05593872070312,7.7076416015625,281.7459411621094,278.4688110351562,25,11041.20474179167,0.0477447509765625,1.00762939453125,0.0823211669921875,11041.19182079167,-0.01268942996200955,0.02124669917665216,-0.004458131664792645,11041.15681679167,2.633445999379054,2.632663167035346,-1.481996939637118,0.007563135586678982,-0.01362639479339123,-0.00134188390802592,-0.00353716011159122,0.01469752192497253,0.003504208289086819,XArbitraryCorrectedZVertical,0.7338233351527711,-0.01500488745969519,-0.01555788798222034,-0.6789964051886409,0.04321001097559929,0.9960599541664124,0.07744366675615311,28.29481506347656,43.18951416015625,7.391031265258789,1,11041.19988079167,unknown,2,2016-03-02 02:45:07.760,2016-03-02 02:41:14.235,128,99.7117,3,4,2016-03-02 02:45:02.625,11040.20412179167,0,-2.581573,97.43034,192.168.1.101,100.78.239.175,2,1,0.37,0
2016-03-02 02:45:07.820,75,234B9614-18C8-49ED-8B56-CAB6C4F40872,my_iOS_device_1,1456908306.999958,40.79923274464979,-96.68587359608773,369.1355,0.73,317.4609375,4,12.31902438511201,-9999,1456908307.790293,29.10797119140625,43.84730529785156,7.83953857421875,281.7023010253906,278.4251708984375,25,11041.23506579167,0.0416717529296875,1.005416870117188,0.07696533203125,11041.22685379167,-0.01482981253010624,0.02337483120373448,-0.003424558845732892,11041.19182079167,2.634058622473098,2.633037108182823,-1.482420747544842,0.00858690869063139,-0.008299477398395538,0.001866150298155844,-0.002066686283797026,0.01826110109686852,0.002803922165185213,XArbitraryCorrectedZVertical,0.7337066812807022,-0.01483423546342382,-0.01555585004198645,-0.6791262524978128,0.04297550022602081,0.9960974454879761,0.07709109783172607,28.28618431091309,43.19956970214844,7.365235328674316,1,11041.19988079167,unknown,2,2016-03-02 02:45:07.760,2016-03-02 02:41:14.235,129,101.2752,3,4,2016-03-02 02:45:05.217,11040.20412179167,0,-2.581573,97.43034,192.168.1.101,100.78.239.175,2,1,0.37,0
2016-03-02 02:45:07.843,76,234B9614-18C8-49ED-8B56-CAB6C4F40872,my_iOS_device_1,1456908306.999958,40.79923274464979,-96.68587359608773,369.1355,0.73,317.4609375,4,12.31902438511201,-9999,1456908307.790293,29.10797119140625,43.84730529785156,7.83953857421875,281.7023010253906,278.4251708984375,25,11041.26533979167,0.039306640625,1.013565063476562,0.084136962890625,11041.22685379167,-0.01482981253010624,0.02337483120373448,-0.003424558845732892,11041.22685379167,2.632225753247945,2.630918290648832,-1.482408955732902,0.006445247214287519,-0.006171114277094603,0.002900084247812629,-0.00122859247494489,0.009076350368559361,0.0008097098325379193,XArbitraryCorrectedZVertical,0.7336799969351554,-0.01478916110097111,-0.01571277402471303,-0.6791524508853573,0.04314448684453964,0.9960963726043701,0.07701011747121811,28.2864990234375,43.20065307617188,7.357677459716797,1,11041.19988079167,unknown,2,2016-03-02 02:45:07.760,2016-03-02 02:41:14.235,129,101.2752,3,4,2016-03-02 02:45:05.217,11040.20412179167,0,-2.581573,97.43034,192.168.1.101,100.78.239.175,2,1,0.37,0
2016-03-02 02:45:07.899,77,234B9614-18C8-49ED-8B56-CAB6C4F40872,my_iOS_device_1,1456908306.999958,40.79923274464979,-96.68587359608773,369.1355,0.73,317.4609375,4,12.31902438511201,-9999,1456908307.844279,28.93547058105469,44.02117919921875,8.0703125,281.6728210449219,278.3956909179688,25,11041.29564879167,0.04766845703125,1.010818481445312,0.075958251953125,11041.26187079167,-0.01273017632668777,0.02550908850132398,-0.001263669937242598,11041.26187079167,2.631273735413933,2.629808882903331,-1.482453593625053,0.008638438768684864,-0.003910178784281015,0.005061603151261806,-0.003336903871968389,0.01691542938351631,0.006587916985154152,XArbitraryCorrectedZVertical,0.7336511696091537,-0.01475395091436961,-0.01578874764317741,-0.6791825952653502,0.04320811852812767,0.9961003065109253,0.0769234374165535,28.29485702514648,43.19778060913086,7.342387199401855,1,11041.19988079167,unknown,2,2016-03-02 02:45:07.760,2016-03-02 02:41:14.235,129,101.2752,3,4,2016-03-02 02:45:05.217,11040.20412179167,0,-2.581573,97.43034,192.168.1.101,100.78.239.175,2,1,0.37,0
2016-03-02 02:45:07.905,78,234B9614-18C8-49ED-8B56-CAB6C4F40872,my_iOS_device_1,1456908306.999958,40.79923274464979,-96.68587359608773,369.1355,0.73,317.4609375,4,12.31902438511201,-9999,1456908307.844279,28.93547058105469,44.02117919921875,8.0703125,281.6728210449219,278.3956909179688,25,11041.32593779167,0.0464324951171875,1.004119873046875,0.084442138671875,11041.29688179167,-0.008438758546134082,0.01593289385361706,-0.004393683166412727,11041.29688179167,2.62989463941998,2.628159037250697,-1.482723957266455,0.01292907632887363,-0.01348602958023548,0.001930837170220912,0.004465762991458178,0.0146943461149931,-0.0006592039135284722,XArbitraryCorrectedZVertical,0.7335489254044083,-0.01465271201166792,-0.015878778174779,-0.6792931152841133,0.04320269450545311,0.9961241483688354,0.07661745697259903,28.29598426818848,43.19742965698242,7.340117931365967,1,11041.19988079167,unknown,2,2016-03-02 02:45:07.760,2016-03-02 02:41:14.235,129,101.2752,3,4,2016-03-02 02:45:05.217,11040.20412179167,0,-2.581573,97.43034,192.168.1.101,100.78.239.175,2,1,0.37,0
2016-03-02 02:45:07.935,79,234B9614-18C8-49ED-8B56-CAB6C4F40872,my_iOS_device_1,1456908306.999958,40.79923274464979,-96.68587359608773,369.1355,0.73,317.4609375,4,12.31902438511201,-9999,1456908307.90753,29.45296859741211,44.26460266113281,7.7735595703125,281.6290893554688,278.3519592285156,25,11041.35621379167,0.0416717529296875,1.00714111328125,0.07623291015625,11041.33189179167,-0.01378638601501319,0.01593475806638011,-0.002339853333743618,11041.33189179167,2.624925827701722,2.622564919864125,-1.482785180387682,0.007580467499792576,-0.01348407752811909,0.003985656425356865,0.002832123544067144,0.007990354672074318,0.008120515383780003,XArbitraryCorrectedZVertical,0.7334498589029189,-0.01456420343286317,-0.01623200084597762,-0.6793936345022444,0.04360037297010422,0.9961295127868652,0.07632162421941757,28.29809188842773,43.199951171875,7.31713342666626,1,11041.19988079167,unknown,2,2016-03-02 02:45:07.760,2016-03-02 02:41:14.235,129,101.2752,3,4,2016-03-02 02:45:05.217,11040.20412179167,0,-2.581573,97.43034,192.168.1.101,100.78.239.175,2,1,0.37,0
2016-03-02 02:45:07.979,80,234B9614-18C8-49ED-8B56-CAB6C4F40872,my_iOS_device_1,1456908306.999958,40.79923274464979,-96.68587359608773,369.1355,0.73,317.4609375,4,12.31902438511201,-9999,1456908307.962359,29.83246612548828,44.50799560546875,7.47686767578125,281.5762329101562,278.2991027832031,25,11041.38649479167,0.04052734375,1.013717651367188,0.079254150390625,11041.36690879167,-0.01477441877943259,0.01910951240186357,-0.007684551325423642,11041.33189179167,2.624925827701722,2.622564919864125,-1.482785180387682,0.007580467499792576,-0.01348407752811909,0.003985656425356865,0.002832123544067144,0.007990354672074318,0.008120515383780003,XArbitraryCorrectedZVertical,0.7334498589029189,-0.01456420343286317,-0.01623200084597762,-0.6793936345022444,0.04360037297010422,0.9961295127868652,0.07632162421941757,28.29809188842773,43.199951171875,7.31713342666626,1,11041.19988079167,unknown,2,2016-03-02 02:45:07.760,2016-03-02 02:41:14.235,129,101.2752,3,4,2016-03-02 02:45:05.217,11040.20412179167,0,-2.581573,97.43034,192.168.1.101,100.78.239.175,2,1,0.37,0
2016-03-02 02:45:08.005,81,234B9614-18C8-49ED-8B56-CAB6C4F40872,my_iOS_device_1,1456908306.999958,40.79923274464979,-96.68587359608773,369.1355,0.73,317.4609375,4,12.31902438511201,-9999,1456908307.962359,29.83246612548828,44.50799560546875,7.47686767578125,281.5762329101562,278.2991027832031,25,11041.41679979167,0.0440826416015625,1.009506225585938,0.0805816650390625,11041.40191979167,-0.01589667486279198,0.0191204313623329,-0.003437874651183289,11041.36690879167,2.624504425227137,2.621759821049197,-1.482962330323953,0.00659151840955019,-0.01030900049954653,-0.001359555404633284,-0.002299122978001833,0.01395624410361052,-0.0004955234471708536,XArbitraryCorrectedZVertical,0.7333886419328733,-0.01441423918384049,-0.01635309555805568,-0.6794600104923427,0.04357414692640305,0.9961450695991516,0.07613334059715271,28.3201904296875,43.19045639038086,7.287616729736328,1,11041.19988079167,unknown,2,2016-03-02 02:45:07.760,2016-03-02 02:41:14.235,129,101.2752,3,4,2016-03-02 02:45:05.217,11040.20412179167,0,-2.581573,97.43034,192.168.1.101,100.78.239.175,2,1,0.37,0
2016-03-02 02:45:08.061,82,234B9614-18C8-49ED-8B56-CAB6C4F40872,my_iOS_device_1,1456908306.999958,40.79923274464979,-96.68587359608773,369.1355,0.73,317.4609375,4,12.31902438511201,-9999,1456908308.021125,29.10796737670898,44.4036865234375,7.6416015625,281.5274963378906,278.2503662109375,25,11041.44709779167,0.0460052490234375,1.007232666015625,0.080352783203125,11041.43691479167,-0.01488999997074203,0.02125974866599355,0.0008386294272659521,11041.40191979167,2.625847440070632,2.622786135926565,-1.483118455687965,0.005566676612943411,-0.01017241179943085,0.002886245492845774,-0.003837572876363993,0.01572784036397934,0.0066596744582057,XArbitraryCorrectedZVertical,0.7333611755475807,-0.01424314849856844,-0.01640573681983374,-0.6794919945957388,0.04341887310147285,0.99615877866745,0.07604296505451202,28.31645202636719,43.19694900512695,7.263615608215332,1,11041.19988079167,unknown,2,2016-03-02 02:45:07.760,2016-03-02 02:41:14.235,129,101.2752,3,4,2016-03-02 02:45:05.217,11040.20412179167,0,-2.581573,97.43034,192.168.1.101,100.78.239.175,2,1,0.37,0
2016-03-02 02:45:08.064,83,234B9614-18C8-49ED-8B56-CAB6C4F40872,my_iOS_device_1,1456908306.999958,40.79923274464979,-96.68587359608773,369.1355,0.73,317.4609375,4,12.31902438511201,-9999,1456908308.021125,29.10796737670898,44.4036865234375,7.6416015625,281.5274963378906,278.2503662109375,25,11041.47738779167,0.0439453125,1.010986328125,0.0800323486328125,11041.43691479167,-0.01488999997074203,0.02125974866599355,0.0008386294272659521,11041.43691479167,2.624011568931044,2.620641342470623,-1.483056338852509,0.0065718749538064,-0.008032851852476597,0.007162554189562798,0.002774053486064076,0.01077417470514774,0.005875329487025738,XArbitraryCorrectedZVertical,0.7333485316186877,-0.01419850088771655,-0.01657931687443663,-0.6795023620247479,0.04361266642808914,0.9961532950401306,0.07600333541631699,28.31180572509766,43.20069885253906,7.259414196014404,1,11041.19988079167,unknown,2,2016-03-02 02:45:07.760,2016-03-02 02:41:14.235,129,101.2752,3,4,2016-03-02 02:45:05.217,11040.20412179167,0,-2.581573,97.43034,192.168.1.101,100.78.239.175,2,1,0.37,0
2016-03-02 02:45:08.088,84,234B9614-18C8-49ED-8B56-CAB6C4F40872,my_iOS_device_1,1456908307.999958,40.79924192283377,-96.68587569156352,368.9657,0.73,314.6484375,4,10,-9999,1456908308.079968,29.34946441650391,44.1602783203125,7.60870361328125,281.4823303222656,278.2052001953125,25,11041.50767679167,0.0449066162109375,1.01080322265625,0.0781707763671875,11041.47192279167,-0.01911297451128068,0.0244408945880932,-0.00135581531095934,11041.47192279167,2.622051265961812,2.618418887062607,-1.482868456283107,0.002347263973206282,-0.004851436708122492,0.004968422930687666,-2.122180922015104e-05,0.01213342882692814,0.004330218303948641,XArbitraryCorrectedZVertical,0.7333707561154029,-0.01419523564881064,-0.01676123217510209,-0.6794739807053306,0.04387498274445534,0.9961368441581726,0.07606834173202515,28.32245254516602,43.19585418701172,7.246701717376709,1,11041.19988079167,unknown,2,2016-03-02 02:45:07.760,2016-03-02 02:41:14.235,129,101.2752,3,4,2016-03-02 02:45:05.217,11040.20412179167,0,-2.581573,97.43034,192.168.1.101,100.78.239.175,2,1,0.37,0
2016-03-02 02:45:08.139,85,234B9614-18C8-49ED-8B56-CAB6C4F40872,my_iOS_device_1,1456908307.999958,40.79924192283377,-96.68587569156352,368.9657,0.73,314.6484375,4,10,-9999,1456908308.079968,29.34946441650391,44.1602783203125,7.60870361328125,281.4823303222656,278.2052001953125,25,11041.537880875,0.04510498046875,1.011306762695312,0.082183837890625,11041.50693379167,-0.0137831902217051,0.02018835895945467,-0.002341983862615682,11041.50693379167,2.621545220041535,2.617712626011098,-1.48288060437642,0.007676395587623119,-0.009103721939027309,0.003981796093285084,-0.001121737877838314,0.0143296280875802,0.002006590366363525,XArbitraryCorrectedZVertical,0.7333577062650941,-0.01413870973831315,-0.01684614342211392,-0.6794871441023127,0.04392264038324356,0.9961379170417786,0.07602685689926147,28.33673286437988,43.18770217895508,7.23945426940918,1,11041.19988079167,unknown,2,2016-03-02 02:45:07.760,2016-03-02 02:41:14.235,129,101.2752,3,4,2016-03-02 02:45:05.217,11041.518426875,0,-2.581573,97.43034,192.168.1.101,100.78.239.175,2,1,0.37,0
2016-03-02 02:45:08.148,86,234B9614-18C8-49ED-8B56-CAB6C4F40872,my_iOS_device_1,1456908307.999958,40.79924192283377,-96.68587569156352,368.9657,0.73,314.6484375,4,10,-9999,1456908308.138748,29.48746871948242,44.57754516601562,7.9383544921875,281.4448852539062,278.1677551269531,25,11041.568168875,0.0483245849609375,1.009811401367188,0.07232666015625,11041.541879875,-0.01268863101368253,0.0223100993999208,-0.00445866429701066,11041.541879875,2.62039864201769,2.61636322500876,-1.482863512755198,0.008769459091126919,-0.006981701124459505,0.001865076832473278,0.001071251695975661,0.01517036184668541,0.006201588548719883,XArbitraryCorrectedZVertical,0.7333431737559457,-0.01410369026339373,-0.01695440156169578,-0.6795008636449081,0.0440337285399437,0.9961364269256592,0.07598225027322769,28.34026718139648,43.18699264526367,7.229861259460449,1,11041.19988079167,unknown,2,2016-03-02 02:45:07.760,2016-03-02 02:41:14.235,129,101.2752,3,4,2016-03-02 02:45:05.217,11041.518426875,0,-2.581573,97.43034,192.168.1.101,100.78.239.175,2,1,0.37,0
2016-03-02 02:45:08.179,87,234B9614-18C8-49ED-8B56-CAB6C4F40872,my_iOS_device_1,1456908307.999958,40.79924192283377,-96.68587569156352,368.9657,0.73,314.6484375,4,10,-9999,1456908308.138748,29.48746871948242,44.57754516601562,7.9383544921875,281.4448852539062,278.1677551269531,25,11041.598461875,0.0417022705078125,1.008346557617188,0.0776824951171875,11041.576895875,-0.01376774388738264,0.02124882970552423,-0.003408047246974401,11041.541879875,2.62039864201769,2.61636322500876,-1.482863512755198,0.008769459091126919,-0.006981701124459505,0.001865076832473278,0.001071251695975661,0.01517036184668541,0.006201588548719883,XArbitraryCorrectedZVertical,0.7333431737559457,-0.01410369026339373,-0.01695440156169578,-0.6795008636449081,0.0440337285399437,0.9961364269256592,0.07598225027322769,28.34026718139648,43.18699264526367,7.229861259460449,1,11041.19988079167,unknown,2,2016-03-02 02:45:07.760,2016-03-02 02:41:14.235,129,101.2752,3,4,2016-03-02 02:45:05.217,11041.518426875,0,-2.581573,97.43034,192.168.1.101,100.78.239.175,2,1,0.37,0
2016-03-02 02:45:08.219,88,234B9614-18C8-49ED-8B56-CAB6C4F40872,my_iOS_device_1,1456908307.999958,40.79924192283377,-96.68587569156352,368.9657,0.73,314.6484375,4,10,-9999,1456908308.197763,29.21146965026855,44.09074401855469,8.2021484375,281.424072265625,278.1469421386719,25,11041.628751875,0.0534820556640625,1.011077880859375,0.0764617919921875,11041.611906875,-0.01806635220287954,0.02125442234381339,-0.0002732403278421299,11041.576895875,2.615883403123711,2.611634283856705,-1.483118739539539,0.007734500337392092,-0.007889823988080025,0.002913603093475103,0.004060553852468729,0.01365261897444725,-0.003227138891816139,XArbitraryCorrectedZVertical,0.7331970337571152,-0.01410706064376924,-0.01710875273398712,-0.6796546116297806,0.04426402971148491,0.99615877866745,0.07555379718542099,28.3460693359375,43.18484878540039,7.219902038574219,1,11041.19988079167,unknown,2,2016-03-02 02:45:07.760,2016-03-02 02:41:14.235,129,101.2752,3,4,2016-03-02 02:45:05.217,11041.518426875,0,-2.581573,97.43034,192.168.1.101,100.78.239.175,2,1,0.37,0
2016-03-02 02:45:08.237,89,234B9614-18C8-49ED-8B56-CAB6C4F40872,my_iOS_device_1,1456908307.999958,40.79924192283377,-96.68587569156352,368.9657,0.73,314.6484375,4,10,-9999,1456908308.197763,29.21146965026855,44.09074401855469,8.2021484375,281.424072265625,278.1469421386719,25,11041.659042875,0.0502166748046875,1.01055908203125,0.078948974609375,11041.646916875,-0.01805649850684624,0.01487109152700247,-0.001335575286674738,11041.611906875,2.614890047864135,2.61051691102619,-1.483098784371556,0.003435407765209675,-0.007883965969085693,0.006048199720680714,0.0008380402578040957,0.0155464569106698,0.002924001775681973,XArbitraryCorrectedZVertical,0.7331862285724242,-0.01409505785436761,-0.01718435780104032,-0.6796646095117596,0.04435849189758301,0.9961570501327515,0.07552143186330795,28.35427856445312,43.18225860595703,7.203153610229492,1,11041.19988079167,unknown,2,2016-03-02 02:45:07.760,2016-03-02 02:41:14.235,129,101.2752,3,4,2016-03-02 02:45:05.217,11041.518426875,0,-2.581573,97.43034,192.168.1.101,100.78.239.175,2,1,0.37,0
2016-03-02 02:45:08.267,90,234B9614-18C8-49ED-8B56-CAB6C4F40872,my_iOS_device_1,1456908307.999958,40.79924192283377,-96.68587569156352,368.9657,0.73,314.6484375,4,10,-9999,1456908308.258214,29.10797119140625,43.70826721191406,7.50982666015625,281.3855895996094,278.1084594726562,25,11041.689317875,0.0507659912109375,1.009872436523438,0.0763397216796875,11041.646916875,-0.01805649850684624,0.01487109152700247,-0.001335575286674738,11041.646916875,2.609126456983447,2.604279642416055,-1.482986006010551,0.003445165930315852,-0.01426731050014496,0.004987414460629225,0.005559381097555161,0.0136032160371542,0.002418985590338707,XArbitraryCorrectedZVertical,0.7331240386798034,-0.01410835261386439,-0.017532261982441,-0.6797225302180997,0.04488617554306984,0.9961471557617188,0.07533980160951614,28.36026763916016,43.17938232421875,7.196816444396973,1,11041.19988079167,unknown,2,2016-03-02 02:45:07.760,2016-03-02 02:41:14.235,129,101.2752,3,4,2016-03-02 02:45:05.217,11041.518426875,0,-2.581573,97.43034,192.168.1.101,100.78.239.175,2,1,0.37,0
2016-03-02 02:45:08.300,91,234B9614-18C8-49ED-8B56-CAB6C4F40872,my_iOS_device_1,1456908307.999958,40.79924192283377,-96.68587569156352,368.9657,0.73,314.6484375,4,10,-9999,1456908308.258214,29.10797119140625,43.70826721191406,7.50982666015625,281.3855895996094,278.1084594726562,25,11041.719601875,0.05078125,1.004058837890625,0.0768585205078125,11041.716931875,-0.01804078585641478,-0.003212571222962585,-0.003457582043249875,11041.681934875,2.605736275413466,2.600338599696022,-1.482757727766126,0.0002642414474394172,-0.0195895079523325,0.003879185300320387,0.003009425243362784,0.01498129311949015,-0.0008027701987884939,XArbitraryCorrectedZVertical,0.7331310403817273,-0.0140529149021188,-0.01786594613334635,-0.6797074379321588,0.04529990255832672,0.9961271286010742,0.07535721361637115,28.37660598754883,43.17109680175781,7.182096481323242,1,11041.19988079167,unknown,2,2016-03-02 02:45:07.760,2016-03-02 02:41:14.235,129,101.2752,3,4,2016-03-02 02:45:05.217,11041.518426875,0,-2.581573,97.43034,192.168.1.101,100.78.239.175,2,1,0.37,0
2016-03-02 02:45:08.331,92,234B9614-18C8-49ED-8B56-CAB6C4F40872,my_iOS_device_1,1456908307.999958,40.79924192283377,-96.68587569156352,368.9657,0.73,314.6484375,4,10,-9999,1456908308.31524,29.62546920776367,43.95167541503906,7.21319580078125,281.3269653320312,278.0498352050781,25,11041.749898875,0.0517730712890625,1.009552001953125,0.085479736328125,11041.751955875,-0.0202397579684932,-0.001072721287083917,0.00183811378437269,11041.716931875,2.601968790425045,2.595597155704657,-1.482482649446533,0.003533147508278489,-0.0321836993098259,0.002861786168068647,0.00704220961779356,0.00810854509472847,0.003466411028057337,XArbitraryCorrectedZVertical,0.7331407960507526,-0.01387260432920402,-0.0183736311476705,-0.6796870851308142,0.04579897597432137,0.9961028695106506,0.0753757506608963,28.41304588317871,43.15215301513672,7.151807308197021,1,11041.19988079167,unknown,2,2016-03-02 02:45:07.760,2016-03-02 02:41:14.235,129,101.2752,3,4,2016-03-02 02:45:05.217,11041.518426875,0,-2.581573,97.43034,192.168.1.101,100.78.239.175,2,1,0.37,0
2016-03-02 02:45:08.378,93,234B9614-18C8-49ED-8B56-CAB6C4F40872,my_iOS_device_1,1456908307.999958,40.79924192283377,-96.68587569156352,368.9657,0.73,314.6484375,4,10,-9999,1456908308.374099,29.5219669342041,44.19508361816406,7.4439697265625,281.2686157226562,277.9914855957031,25,11041.780188875,0.043731689453125,1.01519775390625,0.0780181884765625,11041.751955875,-0.0202397579684932,-0.001072721287083917,0.00183811378437269,11041.751955875,2.597501354021727,2.590075961806038,-1.482088164966228,0.001332670915871859,-0.03004374168813229,0.008159167133271694,0.005352737382054329,0.01348399184644222,0.01002331729978323,XArbitraryCorrectedZVertical,0.7331714309706738,-0.01370628125146108,-0.01895165057823725,-0.6796415419932853,0.04642033204436302,0.996068000793457,0.0754564180970192,28.44465827941895,43.13697052001953,7.117663383483887,1,11041.19988079167,unknown,2,2016-03-02 02:45:07.760,2016-03-02 02:41:14.235,129,101.2752,3,4,2016-03-02 02:45:05.217,11041.518426875,0,-2.581573,97.43034,192.168.1.101,100.78.239.175,2,1,0.37,0
2016-03-02 02:45:08.390,94,234B9614-18C8-49ED-8B56-CAB6C4F40872,my_iOS_device_1,1456908307.999958,40.79924192283377,-96.68587569156352,368.9657,0.73,314.6484375,4,10,-9999,1456908308.374099,29.5219669342041,44.19508361816406,7.4439697265625,281.2686157226562,277.9914855957031,25,11041.810480875,0.0431060791015625,1.0145263671875,0.0727081298828125,11041.786971875,-0.009508017723800897,0.008488293342409556,-0.004405401075209076,11041.786971875,2.596770239429139,2.588499536686844,-1.482067820572296,0.01206303108483553,-0.02048242092132568,0.001915142289362848,-0.002818183274939656,0.01913154684007168,0.002617798745632172,XArbitraryCorrectedZVertical,0.7331572126868606,-0.01344233561989499,-0.01928483466142603,-0.6796527791824121,0.04654987156391144,0.9960662126541138,0.07540038973093033,28.46284484863281,43.12643814086914,7.108791828155518,1,11041.19988079167,unknown,2,2016-03-02 02:45:07.760,2016-03-02 02:41:14.235,129,101.2752,3,4,2016-03-02 02:45:05.217,11041.518426875,0,-2.581573,97.43034,192.168.1.101,100.78.239.175,2,1,0.37,0
2016-03-02 02:45:08.420,95,234B9614-18C8-49ED-8B56-CAB6C4F40872,my_iOS_device_1,1456908307.999958,40.79924192283377,-96.68587569156352,368.9657,0.73,314.6484375,4,10,-9999,1456908308.41316,29.24596786499023,44.47325134277344,7.4439697265625,281.2434692382812,277.9663391113281,25,11041.840783875,0.050689697265625,1.005203247070312,0.07806396484375,11041.821954875,-0.01372859541935847,0.01485963993431513,-0.006601443710088415,11041.786971875,2.596770239429139,2.588499536686844,-1.482067820572296,0.01206303108483553,-0.02048242092132568,0.001915142289362848,-0.002818183274939656,0.01913154684007168,0.002617798745632172,XArbitraryCorrectedZVertical,0.7331572126868606,-0.01344233561989499,-0.01928483466142603,-0.6796527791824121,0.04654987156391144,0.9960662126541138,0.07540038973093033,28.46284484863281,43.12643814086914,7.108791828155518,1,11041.821282875,stationary,1,2016-03-02 02:45:08.406,2016-03-02 02:41:14.235,129,101.2752,3,4,2016-03-02 02:45:05.217,11041.518426875,0,-2.581573,97.43034,192.168.1.101,100.78.239.175,2,1,0.37,0
2016-03-02 02:45:08.460,96,234B9614-18C8-49ED-8B56-CAB6C4F40872,my_iOS_device_1,1456908307.999958,40.79924192283377,-96.68587569156352,368.9657,0.73,314.6484375,4,10,-9999,1456908308.41316,29.24596786499023,44.47325134277344,7.4439697265625,281.2434692382812,277.9663391113281,25,11041.871066875,0.0503997802734375,1.009048461914062,0.0750579833984375,11041.856993875,-0.007432882602411154,0.01700881093400907,-0.0001166464557454706,11041.856993875,2.589823318644188,2.580614351015785,-1.482606766277977,0.01413812767714262,-0.0119615700095892,0.006204367615282536,0.005358216818422079,0.01159186847507954,0.003868999425321817,XArbitraryCorrectedZVertical,0.732880452801157,-0.01320831276799745,-0.0197136837307526,-0.6799434925415034,0.04685736075043678,0.9961138367652893,0.07457643747329712,28.46411895751953,43.13337326049805,7.061427593231201,1,11041.821282875,stationary,1,2016-03-02 02:45:08.406,2016-03-02 02:41:14.235,129,101.2752,3,4,2016-03-02 02:45:05.217,11041.518426875,0,-2.581573,97.43034,192.168.1.101,100.78.239.175,2,1,0.37,0
2016-03-02 02:45:08.480,97,234B9614-18C8-49ED-8B56-CAB6C4F40872,my_iOS_device_1,1456908307.999958,40.79924192283377,-96.68587569156352,368.9657,0.73,314.6484375,4,10,-9999,1456908308.463657,28.93547058105469,44.64714050292969,7.5428466796875,281.2030334472656,277.9259033203125,25,11041.901359875,0.0558013916015625,1.01385498046875,0.080108642578125,11041.892009875,-0.01801495319384101,0.01167210242559929,-0.0045305696464428,11041.856993875,2.589823318644188,2.580614351015785,-1.482606766277977,0.01413812767714262,-0.0119615700095892,0.006204367615282536,0.005358216818422079,0.01159186847507954,0.003868999425321817,XArbitraryCorrectedZVertical,0.732880452801157,-0.01320831276799745,-0.0197136837307526,-0.6799434925415034,0.04685736075043678,0.9961138367652893,0.07457643747329712,28.46411895751953,43.13337326049805,7.061427593231201,1,11041.821282875,stationary,1,2016-03-02 02:45:08.406,2016-03-02 02:41:14.235,129,101.2752,3,4,2016-03-02 02:45:05.217,11041.518426875,0,-2.581573,97.43034,192.168.1.101,100.78.239.175,2,1,0.37,0
2016-03-02 02:45:08.510,98,234B9614-18C8-49ED-8B56-CAB6C4F40872,my_iOS_device_1,1456908307.999958,40.79924192283377,-96.68587569156352,368.9657,0.73,314.6484375,4,10,-9999,1456908308.463657,28.93547058105469,44.64714050292969,7.5428466796875,281.2030334472656,277.9259033203125,25,11041.931663875,0.0543060302734375,1.006118774414062,0.075958251953125,11041.892009875,-0.01801495319384101,0.01167210242559929,-0.0045305696464428,11041.892009875,2.584515528757474,2.574952755355787,-1.482538756335101,0.003657203167676926,-0.01713471859693527,0.001783623010851443,0.008196281269192696,0.01760982349514961,0.004734450951218605,XArbitraryCorrectedZVertical,0.7328084536504914,-0.01324107256645506,-0.01999636592070266,-0.6800121981300118,0.04731519520282745,0.996107816696167,0.07436711341142654,28.49753189086914,43.11947631835938,7.011366844177246,1,11041.821282875,stationary,1,2016-03-02 02:45:08.406,2016-03-02 02:41:14.235,129,101.2752,3,4,2016-03-02 02:45:05.217,11041.518426875,0,-2.581573,97.43034,192.168.1.101,100.78.239.175,2,1,0.37,0
2016-03-02 02:45:08.542,99,234B9614-18C8-49ED-8B56-CAB6C4F40872,my_iOS_device_1,1456908307.999958,40.79924192283377,-96.68587569156352,368.9657,0.73,314.6484375,4,10,-9999,1456908308.522604,29.17697334289551,44.33419799804688,7.31207275390625,281.153564453125,277.8764343261719,25,11041.961938875,0.0571746826171875,1.007659912109375,0.0752716064453125,11041.962030875,-0.006363090792526324,-0.01383485554685263,-0.002216815291381958,11041.927021875,2.579878100342147,2.569451934679515,-1.482546982265242,0.01643993891775608,-0.02989178709685802,-0.0001537613425171003,0.007990719750523567,0.01179549936205149,0.003247975371778011,XArbitraryCorrectedZVertical,0.7327200259133496,-0.0130681585605342,-0.0204333618123911,-0.680097834566763,0.04771912097930908,0.9961085319519043,0.07409882545471191,28.52105903625488,43.10780715942383,6.987415313720703,1,11041.821282875,stationary,1,2016-03-02 02:45:08.406,2016-03-02 02:41:14.235,129,101.2752,3,4,2016-03-02 02:45:05.217,11041.518426875,0,-2.581573,97.43034,192.168.1.101,100.78.239.175,2,1,0.37,0
2016-03-02 02:45:08.571,100,234B9614-18C8-49ED-8B56-CAB6C4F40872,my_iOS_device_1,1456908307.999958,40.79924192283377,-96.68587569156352,368.9657,0.73,314.6484375,4,10,-9999,1456908308.522604,29.17697334289551,44.33419799804688,7.31207275390625,281.153564453125,277.8764343261719,25,11041.992241875,0.045806884765625,1.009963989257812,0.07757568359375,11041.962030875,-0.006363090792526324,-0.01383485554685263,-0.002216815291381958,11041.962030875,2.570169994315452,2.558481390227289,-1.482708652900192,0.01530773565173149,-0.04264172539114952,0.00410191947594285,0.008734220638871193,0.01153712347149849,0.001835164264775813,XArbitraryCorrectedZVertical,0.7324976343721658,-0.01286222099160492,-0.02111924993810742,-0.6803203335138343,0.04844046384096146,0.9961227774620056,0.073436439037323,28.53547286987305,43.10333633422852,6.956092357635498,1,11041.821282875,stationary,1,2016-03-02 02:45:08.406,2016-03-02 02:41:14.235,129,101.2752,3,4,2016-03-02 02:45:05.217,11041.518426875,0,-2.581573,97.43034,192.168.1.101,100.78.239.175,2,1,0.37,0
2016-03-02 02:45:08.620,101,234B9614-18C8-49ED-8B56-CAB6C4F40872,my_iOS_device_1,1456908307.999958,40.79924192283377,-96.68587569156352,368.9657,0.73,314.6484375,4,10,-9999,1456908308.580823,29.28047180175781,43.74307250976562,6.8834228515625,281.0912780761719,277.8141479492188,25,11042.022515875,0.0474395751953125,1.011672973632812,0.079498291015625,11041.997028875,-0.01164094344084536,0.00104289388287503,-0.004432565318327884,11041.997028875,2.568730985478677,2.555858040737408,-1.482823619703647,0.01002858206629753,-0.02776364423334599,0.00188574509229511,-0.002762751188129187,0.01383109297603369,0.004362002015113831,XArbitraryCorrectedZVertical,0.7324283068754001,-0.01247462137055646,-0.02156830072093613,-0.6803881006552701,0.04856963455677032,0.9961329102516174,0.07321368157863617,28.57292747497559,43.0894889831543,6.887776374816895,1,11041.821282875,stationary,1,2016-03-02 02:45:08.406,2016-03-02 02:41:14.235,129,101.2752,3,4,2016-03-02 02:45:05.217,11041.518426875,0,-2.581573,97.43034,192.168.1.101,100.78.239.175,2,1,0.37,0
2016-03-02 02:45:08.631,102,234B9614-18C8-49ED-8B56-CAB6C4F40872,my_iOS_device_1,1456908307.999958,40.79924192283377,-96.68587569156352,368.9657,0.73,314.6484375,4,10,-9999,1456908308.580823,29.28047180175781,43.74307250976562,6.8834228515625,281.0912780761719,277.8141479492188,25,11042.052818875,0.0455169677734375,1.00787353515625,0.085113525390625,11042.032058875,-0.01052774210519224,0.00847870596248527,-0.007617439665953645,11041.997028875,2.568730985478677,2.555858040737408,-1.482823619703647,0.01002858206629753,-0.02776364423334599,0.00188574509229511,-0.002762751188129187,0.01383109297603369,0.004362002015113831,XArbitraryCorrectedZVertical,0.7324283068754001,-0.01247462137055646,-0.02156830072093613,-0.6803881006552701,0.04856963455677032,0.9961329102516174,0.07321368157863617,28.57292747497559,43.0894889831543,6.887776374816895,1,11041.821282875,stationary,1,2016-03-02 02:45:08.406,2016-03-02 02:41:14.235,129,101.2752,3,4,2016-03-02 02:45:05.217,11041.518426875,0,-2.581573,97.43034,192.168.1.101,100.78.239.175,2,1,0.37,0
2016-03-02 02:45:08.662,103,234B9614-18C8-49ED-8B56-CAB6C4F40872,my_iOS_device_1,1456908307.999958,40.79924192283377,-96.68587569156352,368.9657,0.73,314.6484375,4,10,-9999,1456908308.637822,29.55646896362305,43.67352294921875,6.8834228515625,281.0188903808594,277.7417602539062,25,11042.083092875,0.0486297607421875,1.010284423828125,0.078857421875,11042.067056875,-0.01375868913967637,0.01380209866544466,-0.004469849573588994,11042.067056875,2.572082966961927,2.557756774670939,-1.4829543206647,0.007979304529726505,-0.01481493003666401,0.001834218390285969,-0.00165161385666579,0.01189701072871685,0.01304553542286158,XArbitraryCorrectedZVertical,0.7324327452553753,-0.01186777343725573,-0.02198806537603133,-0.6803807423879039,0.04835876822471619,0.9961443543434143,0.073197141289711,28.57433700561523,43.09481430053711,6.84853458404541,1,11041.821282875,stationary,1,2016-03-02 02:45:08.406,2016-03-02 02:41:14.235,129,101.2752,3,4,2016-03-02 02:45:05.217,11041.518426875,0,-2.581573,97.43034,192.168.1.101,100.78.239.175,2,1,0.37,0
2016-03-02 02:45:08.698,104,234B9614-18C8-49ED-8B56-CAB6C4F40872,my_iOS_device_1,1456908307.999958,40.79924192283377,-96.68587569156352,368.9657,0.73,314.6484375,4,10,-9999,1456908308.696786,29.52197074890137,43.77784729003906,7.50982666015625,280.9734497070312,277.6963195800781,25,11042.113396875,0.0516204833984375,1.011245727539062,0.070343017578125,11042.102069875,-0.01373844911539177,0.02124297075112605,-0.005539108751255808,11042.067056875,2.572082966961927,2.557756774670939,-1.4829543206647,0.007979304529726505,-0.01481493003666401,0.001834218390285969,-0.00165161385666579,0.01189701072871685,0.01304553542286158,XArbitraryCorrectedZVertical,0.7324327452553753,-0.01186777343725573,-0.02198806537603133,-0.6803807423879039,0.04835876822471619,0.9961443543434143,0.073197141289711,28.57433700561523,43.09481430053711,6.84853458404541,1,11041.821282875,stationary,1,2016-03-02 02:45:08.406,2016-03-02 02:41:14.235,129,101.2752,3,4,2016-03-02 02:45:05.217,11041.518426875,0,-2.581573,97.43034,192.168.1.101,100.78.239.175,2,1,0.37,0
2016-03-02 02:45:08.722,105,234B9614-18C8-49ED-8B56-CAB6C4F40872,my_iOS_device_1,1456908307.999958,40.79924192283377,-96.68587569156352,368.9657,0.73,314.6484375,4,10,-9999,1456908308.696786,29.52197074890137,43.77784729003906,7.50982666015625,280.9734497070312,277.6963195800781,25,11042.143699875,0.046173095703125,1.011032104492188,0.0780029296875,11042.102069875,-0.01373844911539177,0.02124297075112605,-0.005539108751255808,11042.102069875,2.571642941874953,2.557023726142189,-1.483013081614536,0.007998076267540455,-0.007373805157840252,0.0007649650215171278,0.001073625870049,0.012425915338099,0.003944027703255415,XArbitraryCorrectedZVertical,0.7324055828373462,-0.0117682055794006,-0.02209550447483802,-0.6804082305852202,0.04838011041283607,0.9961495399475098,0.0731128603219986,28.57208824157715,43.10061645507812,6.821351051330566,1,11041.821282875,stationary,1,2016-03-02 02:45:08.406,2016-03-02 02:41:14.235,129,101.2752,3,4,2016-03-02 02:45:05.217,11041.518426875,0,-2.581573,97.43034,192.168.1.101,100.78.239.175,2,1,0.37,0
2016-03-02 02:45:08.779,106,234B9614-18C8-49ED-8B56-CAB6C4F40872,my_iOS_device_1,1456908307.999958,40.79924192283377,-96.68587569156352,368.9657,0.73,314.6484375,4,10,-9999,1456908308.757662,29.76346969604492,43.95169067382812,7.806396484375,280.9396667480469,277.6625366210938,25,11042.173975875,0.049285888671875,1.006759643554688,0.0760345458984375,11042.172106875,-0.009448096599274113,0.02974750937618509,-0.007612645975991502,11042.137080875,2.56931603082992,2.554482378382929,-1.48305748210185,0.003759136190637946,-0.005252970848232508,-0.0003627162659540772,0.0004547146963886917,0.01382583193480968,0.007033725269138813,XArbitraryCorrectedZVertical,0.7323513016893123,-0.01174710408737084,-0.02222589271369106,-0.6804627735244522,0.04854125529527664,0.9961534142494202,0.07295284420251846,28.57695007324219,43.09977340698242,6.806267738342285,1,11041.821282875,stationary,1,2016-03-02 02:45:08.406,2016-03-02 02:41:14.235,129,101.2752,3,4,2016-03-02 02:45:05.217,11041.518426875,0,-2.581573,97.43034,192.168.1.101,100.78.239.175,2,1,0.37,0
2016-03-02 02:45:08.782,107,234B9614-18C8-49ED-8B56-CAB6C4F40872,my_iOS_device_1,1456908307.999958,40.79924192283377,-96.68587569156352,368.9657,0.73,314.6484375,4,10,-9999,1456908308.757662,29.76346969604492,43.95169067382812,7.806396484375,280.9396667480469,277.6625366210938,25,11042.204281875,0.0480804443359375,1.0107421875,0.072723388671875,11042.172106875,-0.009448096599274113,0.02974750937618509,-0.007612645975991502,11042.172106875,2.570877162710976,2.556035763748571,-1.48318358911217,0.01228649262338877,0.001131244120188057,-0.001308700302615762,-0.002276904648169875,0.01370797771960497,0.005674554500728846,XArbitraryCorrectedZVertical,0.7323423523913813,-0.01167958998686285,-0.02216387980461928,-0.6804755899395528,0.04835844784975052,0.9961644411087036,0.07292346656322479,28.57572174072266,43.10039138793945,6.807525634765625,1,11041.821282875,stationary,1,2016-03-02 02:45:08.406,2016-03-02 02:41:14.235,129,101.2752,3,4,2016-03-02 02:45:05.217,11041.518426875,0,-2.581573,97.43034,192.168.1.101,100.78.239.175,2,1,0.37,0
2016-03-02 02:45:08.813,108,234B9614-18C8-49ED-8B56-CAB6C4F40872,my_iOS_device_1,1456908307.999958,40.79924192283377,-96.68587569156352,368.9657,0.73,314.6484375,4,10,-9999,1456908308.757662,29.76346969604492,43.95169067382812,7.806396484375,280.9396667480469,277.6625366210938,25,11042.234573875,0.0523529052734375,1.010482788085938,0.0768890380859375,11042.207121875,-0.01373445437375665,0.02655997186746925,-0.005541771912345886,11042.207121875,2.569579220579337,2.554757528582861,-1.483541979923431,0.008052138611674309,-0.001949380501173437,0.0007459968910552561,-0.0001734838733682409,0.01454643346369267,0.0001590849424246699,XArbitraryCorrectedZVertical,0.7322201961759023,-0.01165058703270679,-0.02212103774828247,-0.6806089242897385,0.04825392737984657,0.9961957335472107,0.07256430387496948,28.57280921936035,43.10289764404297,6.803875923156738,1,11041.821282875,stationary,1,2016-03-02 02:45:08.406,2016-03-02 02:41:14.235,129,101.2752,3,4,2016-03-02 02:45:05.217,11041.518426875,0,-2.581573,97.43034,192.168.1.101,100.78.239.175,2,1,0.37,0
2016-03-02 02:45:08.861,109,234B9614-18C8-49ED-8B56-CAB6C4F40872,my_iOS_device_1,1456908307.999958,40.79924192283377,-96.68587569156352,368.9657,0.73,314.6484375,4,10,-9999,1456908308.81384,29.93597030639648,43.70828247070312,6.91632080078125,280.8893127441406,277.6121826171875,25,11042.264864875,0.0548553466796875,1.007843017578125,0.066650390625,11042.242117875,-0.004158259726049722,0.03082076329548702,-0.005404885432315814,11042.207121875,2.569579220579337,2.554757528582861,-1.483541979923431,0.008052138611674309,-0.001949380501173437,0.0007459968910552561,-0.0001734838733682409,0.01454643346369267,0.0001590849424246699,XArbitraryCorrectedZVertical,0.7322201961759023,-0.01165058703270679,-0.02212103774828247,-0.6806089242897385,0.04825392737984657,0.9961957335472107,0.07256430387496948,28.57280921936035,43.10289764404297,6.803875923156738,1,11041.821282875,stationary,1,2016-03-02 02:45:08.406,2016-03-02 02:41:14.235,129,101.2752,3,4,2016-03-02 02:45:05.217,11041.518426875,0,-2.581573,97.43034,192.168.1.101,100.78.239.175,2,1,0.37,0
2016-03-02 02:45:08.873,110,234B9614-18C8-49ED-8B56-CAB6C4F40872,my_iOS_device_1,1456908307.999958,40.79924192283377,-96.68587569156352,368.9657,0.73,314.6484375,4,10,-9999,1456908308.81384,29.93597030639648,43.70828247070312,6.91632080078125,280.8893127441406,277.6121826171875,25,11042.295155875,0.0504302978515625,1.010894775390625,0.072296142578125,11042.277144875,-0.01159247390900592,0.02655864028692421,-0.00657640999584167,11042.242117875,2.567060319374463,2.552256549392802,-1.483635993951785,0.0176271740347147,0.002311581745743752,0.0008833344327285886,0.00396970147266984,0.01427884586155415,0.004523500800132751,XArbitraryCorrectedZVertical,0.7321514867973554,-0.01170337170685474,-0.02216118349852006,-0.6806806251224121,0.0483832024037838,0.9962039589881897,0.07236553728580475,28.57326316833496,43.10567474365234,6.784356117248535,1,11041.821282875,stationary,1,2016-03-02 02:45:08.406,2016-03-02 02:41:14.235,129,101.2752,3,4,2016-03-02 02:45:05.217,11041.518426875,0,-2.581573,97.43034,192.168.1.101,100.78.239.175,2,1,0.37,0
2016-03-02 02:45:08.903,111,234B9614-18C8-49ED-8B56-CAB6C4F40872,my_iOS_device_1,1456908307.999958,40.79924192283377,-96.68587569156352,368.9657,0.73,314.6484375,4,10,-9999,1456908308.87492,29.76346969604492,43.60397338867188,6.75152587890625,280.81982421875,277.5426940917969,25,11042.325425875,0.05126953125,1.006240844726562,0.069091796875,11042.312160875,-0.01478267457881184,0.02761964366521178,-0.006623281631027066,11042.277144875,2.557675269334082,2.542871767401897,-1.484143662763764,0.0101946946233511,-0.001950638019479811,-0.0002864981652237475,0.009177718311548233,0.01342606544494629,-0.002047761343419552,XArbitraryCorrectedZVertical,0.7318503737737467,-0.01184422197234784,-0.02230195982969116,-0.6809973328881928,0.04877516254782677,0.9962480068206787,0.07149051129817963,28.57912826538086,43.10531616210938,6.761866569519043,1,11041.821282875,stationary,1,2016-03-02 02:45:08.406,2016-03-02 02:41:14.235,129,101.2752,3,4,2016-03-02 02:45:05.217,11041.518426875,0,-2.581573,97.43034,192.168.1.101,100.78.239.175,2,1,0.37,0
2016-03-02 02:45:08.939,112,234B9614-18C8-49ED-8B56-CAB6C4F40872,my_iOS_device_1,1456908307.999958,40.79924192283377,-96.68587569156352,368.9657,0.73,314.6484375,4,10,-9999,1456908308.931933,30.38446807861328,43.81260681152344,6.81744384765625,280.7494201660156,277.4722900390625,25,11042.355715875,0.045654296875,1.012466430664062,0.081756591796875,11042.312160875,-0.01478267457881184,0.02761964366521178,-0.006623281631027066,11042.312160875,2.555178944687403,2.540288724665156,-1.484325235664615,0.00700429966673255,-0.0008895160863175988,-0.0003329075698275119,0.0005353721207939088,0.01478365901857615,0.002515349304303527,XArbitraryCorrectedZVertical,0.7317563269053734,-0.01184220369583442,-0.02236124262910902,-0.6810964800038575,0.04885732755064964,0.9962636828422546,0.07121512293815613,28.59499359130859,43.09943771362305,6.73220682144165,1,11041.821282875,stationary,1,2016-03-02 02:45:08.406,2016-03-02 02:41:14.235,129,101.2752,3,4,2016-03-02 02:45:05.217,11041.518426875,0,-2.581573,97.43034,192.168.1.101,100.78.239.175,2,1,0.37,0
