loggingTime,loggingSample,identifierForVendor,deviceID,locationTimestamp_since1970,locationLatitude,locationLongitude,locationAltitude,locationSpeed,locationCourse,locationVerticalAccuracy,locationHorizontalAccuracy,locationFloor,locationHeadingTimestamp_since1970,locationHeadingX,locationHeadingY,locationHeadingZ,locationTrueHeading,locationMagneticHeading,locationHeadingAccuracy,accelerometerTimestamp_sinceReboot,accelerometerAccelerationX,accelerometerAccelerationY,accelerometerAccelerationZ,gyroTimestamp_sinceReboot,gyroRotationX,gyroRotationY,gyroRotationZ,motionTimestamp_sinceReboot,motionYaw,motionRoll,motionPitch,motionRotationRateX,motionRotationRateY,motionRotationRateZ,motionUserAccelerationX,motionUserAccelerationY,motionUserAccelerationZ,motionAttitudeReferenceFrame,motionQuaternionX,motionQuaternionY,motionQuaternionZ,motionQuaternionW,motionGravityX,motionGravityY,motionGravityZ,motionMagneticFieldX,motionMagneticFieldY,motionMagneticFieldZ,motionMagneticFieldCalibrationAccuracy,activityTimestamp_sinceReboot,activity,activityActivityConfidence,activityActivityStartDate,pedometerStartDate,pedometerNumberofSteps,pedometerDistance,pedometerFloorAscended,pedometerFloorDescended,pedometerEndDate,altimeterTimestamp_sinceReboot,altimeterReset,altimeterRelativeAltitude,altimeterPressure,IP_en0,IP_pdp_ip0,deviceOrientation,batteryState,batteryLevel,state
2016-03-02 02:43:06.745,1,234B9614-18C8-49ED-8B56-CAB6C4F40872,my_iOS_device_1,1456908185.995615,40.79923111017867,-96.68577795857254,370.0887,0.8,296.71875,4,7.816893370535923,-9999,1456908186.724196,26.00925445556641,39.27647399902344,13.31488037109375,288.4802856445312,285.2031555175781,25,10920.15636754167,0.1036224365234375,1.006271362304688,0.1163482666015625,10920.11925854167,-0.1232692047442797,0.07646042016061096,-0.006092247309665265,10920.11925854167,2.514874879674965,2.313362445765844,-1.426148188650049,-0.1032380238175392,0.04658756405115128,0.0002234708081232384,-0.004420110955834389,0.009771927259862423,-0.002588408533483744,XArbitraryCorrectedZVertical,0.7398430134710712,0.03696072145320343,-0.104917243315853,-0.6635198509032595,0.1061962321400642,0.9895566701889038,0.09746755659580231,23.7805347442627,34.45040130615234,12.14199924468994,1,10919.70826254167,walking,0,2016-03-02 02:43:06.268,2016-03-02 02:41:14.235,40,40.52893,1,1,2016-03-02 02:43:03.720,10919.41013654167,0,-2.111908,97.42488,192.168.1.101,100.78.239.175,2,1,0.38,0
2016-03-02 02:43:06.783,2,234B9614-18C8-49ED-8B56-CAB6C4F40872,my_iOS_device_1,1456908185.995615,40.79923111017867,-96.68577795857254,370.0887,0.8,296.71875,4,7.816893370535923,-9999,1456908186.781915,26.32079696655273,38.75450134277344,13.347900390625,288.4896240234375,285.2124938964844,25,10920.18664854167,0.1233673095703125,0.997314453125,0.0998992919921875,10920.15427654167,-0.03493028717358829,0.07119801384661438,-0.009069661408373854,10920.15427654167,2.532500205907545,2.332369737654006,-1.424035176208201,-0.01490112859755754,0.04132543504238129,-0.002754327841103077,-0.000933484232518822,0.01863889582455158,0.03435817360877991,XArbitraryCorrectedZVertical,0.7410191287678801,0.03668986938849668,-0.104207497580495,-0.6623332255989698,0.1058376580476761,0.9892498850822449,0.1009109914302826,23.73388862609863,34.41816329956055,12.32332992553711,1,10919.70826254167,walking,0,2016-03-02 02:43:06.268,2016-03-02 02:41:14.235,40,40.52893,1,1,2016-03-02 02:43:03.720,10919.41013654167,0,-2.111908,97.42488,192.168.1.101,100.78.239.175,2,1,0.38,0
2016-03-02 02:43:06.803,3,234B9614-18C8-49ED-8B56-CAB6C4F40872,my_iOS_device_1,1456908185.995615,40.79923111017867,-96.68577795857254,370.0887,0.8,296.71875,4,7.816893370535923,-9999,1456908186.781915,26.32079696655273,38.75450134277344,13.347900390625,288.4896240234375,285.2124938964844,25,10920.21692654167,0.1251068115234375,0.994049072265625,0.1180267333984375,10920.18928454167,-0.06675905694167031,0.08179340024349463,-0.01486603152093132,10920.18928454167,2.53755029740685,2.339129069687393,-1.422970541273226,-0.04672994464635849,0.05192108824849129,-0.008549889549612999,0.01745689660310745,0.008220802061259747,-0.002456624060869217,XArbitraryCorrectedZVertical,0.7415364907411941,0.03607756745753323,-0.1036149283823232,-0.6618806453144598,0.105910412967205,0.9890936613082886,0.1023559123277664,23.71990966796875,34.39839172363281,12.40517139434814,1,10919.70826254167,walking,0,2016-03-02 02:43:06.268,2016-03-02 02:41:14.235,40,40.52893,1,1,2016-03-02 02:43:03.720,10919.41013654167,0,-2.111908,97.42488,192.168.1.101,100.78.239.175,2,1,0.38,0
2016-03-02 02:43:06.834,4,234B9614-18C8-49ED-8B56-CAB6C4F40872,my_iOS_device_1,1456908185.995615,40.79923111017867,-96.68577795857254,370.0887,0.8,296.71875,4,7.816893370535923,-9999,1456908186.781915,26.32079696655273,38.75450134277344,13.347900390625,288.4896240234375,285.2124938964844,25,10920.24723554167,0.1199493408203125,0.999603271484375,0.0987701416015625,10920.22430054167,-0.07528303664268693,0.08178993813407753,-0.01392407144337029,10920.22430054167,2.545441471322701,2.348690567688251,-1.420793316323954,-0.05525529384613037,0.05191804468631744,-0.007606017403304577,0.01864602603018284,0.00527844438329339,0.01315182540565729,XArbitraryCorrectedZVertical,0.7424205664729027,0.0353434103766441,-0.1031657080479559,-0.6609987764768885,0.1064607873558998,0.988770604133606,0.1048749089241028,23.70206642150879,34.37461090087891,12.50479793548584,1,10919.70826254167,walking,0,2016-03-02 02:43:06.268,2016-03-02 02:41:14.235,40,40.52893,1,1,2016-03-02 02:43:03.720,10919.41013654167,0,-2.111908,97.42488,192.168.1.101,100.78.239.175,2,1,0.38,0
2016-03-02 02:43:06.866,5,234B9614-18C8-49ED-8B56-CAB6C4F40872,my_iOS_device_1,1456908185.995615,40.79923111017867,-96.68577795857254,370.0887,0.8,296.71875,4,7.816893370535923,-9999,1456908186.840655,26.04386901855469,38.54568481445312,13.6119384765625,288.5092163085938,285.2320861816406,25,10920.27752354167,0.110870361328125,0.9971160888671875,0.1220245361328125,10920.25931454167,-0.1060340251176139,0.07217566028278248,-0.0218259367137444,10920.22430054167,2.545441471322701,2.348690567688251,-1.420793316323954,-0.05525529384613037,0.05191804468631744,-0.007606017403304577,0.01864602603018284,0.00527844438329339,0.01315182540565729,XArbitraryCorrectedZVertical,0.7424205664729027,0.0353434103766441,-0.1031657080479559,-0.6609987764768885,0.1064607873558998,0.988770604133606,0.1048749089241028,23.70206642150879,34.37461090087891,12.50479793548584,1,10919.70826254167,walking,0,2016-03-02 02:43:06.268,2016-03-02 02:41:14.235,40,40.52893,1,1,2016-03-02 02:43:03.720,10919.41013654167,0,-2.111908,97.42488,192.168.1.101,100.78.239.175,2,1,0.38,0
2016-03-02 02:43:06.895,6,234B9614-18C8-49ED-8B56-CAB6C4F40872,my_iOS_device_1,1456908185.995615,40.79923111017867,-96.68577795857254,370.0887,0.8,296.71875,4,7.816893370535923,-9999,1456908186.840655,26.04386901855469,38.54568481445312,13.6119384765625,288.5092163085938,285.2320861816406,25,10920.30781254167,0.1218414306640625,1.003829956054688,0.128265380859375,10920.29434654167,-0.09431238789573912,0.06154458752729516,-0.02378176221829859,10920.25931454167,2.554344336847542,2.359081163748791,-1.418787863336537,-0.08600594848394394,0.0423039011657238,-0.01550611387938261,0.006594320293515921,0.01085967011749744,-0.00528483372181654,XArbitraryCorrectedZVertical,0.7432914715040914,0.03476325593631496,-0.1026914426216392,-0.6601240580665522,0.1067632213234901,0.9884689450263977,0.1073813885450363,23.70722198486328,34.34573745727539,12.57416725158691,1,10919.70826254167,walking,0,2016-03-02 02:43:06.268,2016-03-02 02:41:14.235,40,40.52893,1,1,2016-03-02 02:43:03.720,10919.41013654167,0,-2.111908,97.42488,192.168.1.101,100.78.239.175,2,1,0.38,0
2016-03-02 02:43:06.942,7,234B9614-18C8-49ED-8B56-CAB6C4F40872,my_iOS_device_1,1456908185.995615,40.79923111017867,-96.68577795857254,370.0887,0.8,296.71875,4,7.816893370535923,-9999,1456908186.900499,26.0784854888916,38.928466796875,13.77691650390625,288.5418701171875,285.2647399902344,25,10920.33808954167,0.1223602294921875,0.9964141845703125,0.1233978271484375,10920.32935354167,-0.08589307042556261,0.03923422181126535,-0.01831935250643706,10920.29434654167,2.571204057589513,2.377011170167144,-1.416683481693985,-0.07428570091724396,0.03167325258255005,-0.01746146567165852,0.008531357161700726,0.008342377841472626,0.01771504990756512,XArbitraryCorrectedZVertical,0.7444386358478998,0.03465145804071319,-0.1020411640097895,-0.6589370188114154,0.1062605157494545,0.9881480932235718,0.1107792109251022,23.69201850891113,34.27692413330078,12.78876686096191,1,10919.70826254167,walking,0,2016-03-02 02:43:06.268,2016-03-02 02:41:14.235,40,40.52893,1,1,2016-03-02 02:43:03.720,10919.41013654167,0,-2.111908,97.42488,192.168.1.101,100.78.239.175,2,1,0.38,0
2016-03-02 02:43:06.956,8,234B9614-18C8-49ED-8B56-CAB6C4F40872,my_iOS_device_1,1456908185.995615,40.79923111017867,-96.68577795857254,370.0887,0.8,296.71875,4,7.816893370535923,-9999,1456908186.900499,26.0784854888916,38.928466796875,13.77691650390625,288.5418701171875,285.2647399902344,25,10920.36837254167,0.1175384521484375,0.999176025390625,0.12158203125,10920.36437354167,-0.0933272846085188,0.03497209880270254,-0.01949087706996292,10920.32935354167,2.584476730876327,2.390772685538425,-1.413664196482761,-0.06586907804012299,0.009363496676087379,-0.01199655327945948,0.01833056472241879,0.01296074222773314,0.01397565752267838,XArbitraryCorrectedZVertical,0.745668936845889,0.03440542659093091,-0.1019281287761023,-0.6575749081347291,0.1067609861493111,0.9876801371574402,0.1144117936491966,23.67642974853516,34.22401428222656,12.95821189880371,1,10919.70826254167,walking,0,2016-03-02 02:43:06.268,2016-03-02 02:41:14.235,40,40.52893,1,1,2016-03-02 02:43:03.720,10919.41013654167,0,-2.111908,97.42488,192.168.1.101,100.78.239.175,2,1,0.38,0
2016-03-02 02:43:06.986,9,234B9614-18C8-49ED-8B56-CAB6C4F40872,my_iOS_device_1,1456908185.995615,40.79923111017867,-96.68577795857254,370.0887,0.8,296.71875,4,7.816893370535923,-9999,1456908186.957825,26.0784854888916,39.4156494140625,14.3709716796875,288.6413879394531,285.3642578125,25,10920.39866854167,0.118927001953125,1.0140380859375,0.12799072265625,10920.36437354167,-0.0933272846085188,0.03497209880270254,-0.01949087706996292,10920.36437354167,2.592604509197236,2.398910544677456,-1.411710497287004,-0.07330358028411865,0.005101393908262253,-0.01316621154546738,0.01551900990307331,0.009178998880088329,-0.001372128841467202,XArbitraryCorrectedZVertical,0.7464380002074282,0.03434152204905987,-0.1019744110906847,-0.6566979451714273,0.1071311384439468,0.9873725175857544,0.1166980564594269,23.68657302856445,34.19126510620117,13.02595996856689,1,10919.70826254167,walking,0,2016-03-02 02:43:06.268,2016-03-02 02:41:14.235,40,40.52893,1,1,2016-03-02 02:43:03.720,10919.41013654167,0,-2.111908,97.42488,192.168.1.101,100.78.239.175,2,1,0.38,0
2016-03-02 02:43:07.023,10,234B9614-18C8-49ED-8B56-CAB6C4F40872,my_iOS_device_1,1456908185.995615,40.79923111017867,-96.68577795857254,370.0887,0.8,296.71875,4,7.816893370535923,-9999,1456908187.018707,25.94001960754395,39.69403076171875,14.50299072265625,288.7581481933594,285.4810180664062,25,10920.42896054167,0.1150970458984375,1.00970458984375,0.129150390625,10920.39938454167,-0.06354275729318161,0.01797713630636188,-0.0201153883455865,10920.39938454167,2.602955913034043,2.409060599578555,-1.409892285385518,-0.04352021217346191,-0.0118931969627738,-0.01378955226391554,0.01178544759750366,0.02695523574948311,0.008876764215528965,XArbitraryCorrectedZVertical,0.7472399364420189,0.0344885011881117,-0.1019587463532067,-0.655780020063119,0.1071415543556213,0.987082839012146,0.1191139593720436,23.70073127746582,34.14419555664062,13.12331199645996,1,10919.70826254167,walking,0,2016-03-02 02:43:06.268,2016-03-02 02:41:14.235,40,40.52893,1,1,2016-03-02 02:43:03.720,10919.41013654167,0,-2.111908,97.42488,192.168.1.101,100.78.239.175,2,1,0.38,0
2016-03-02 02:43:07.046,11,234B9614-18C8-49ED-8B56-CAB6C4F40872,my_iOS_device_1,1456908185.995615,40.79923111017867,-96.68577795857254,370.0887,0.8,296.71875,4,7.816893370535923,-9999,1456908187.018707,25.94001960754395,39.69403076171875,14.50299072265625,288.7581481933594,285.4810180664062,25,10920.45925054167,0.1218719482421875,0.9983978271484375,0.1298370361328125,10920.43439454167,-0.02853603739630805,0.009513876678199071,-0.01320821374235699,10920.43439454167,2.607644944157015,2.412983963088126,-1.408999740188519,-0.008514404296875,-0.02035621553659439,-0.00688118627294898,0.007837075740098953,0.02276512794196606,0.008959715254604816,XArbitraryCorrectedZVertical,0.7475872189885251,0.03476618910693296,-0.1022132293913433,-0.6553297779266206,0.1072599664330482,0.9869394898414612,0.1201906725764275,23.6978816986084,34.12882232666016,13.16835975646973,1,10919.70826254167,walking,0,2016-03-02 02:43:06.268,2016-03-02 02:41:14.235,40,40.52893,1,1,2016-03-02 02:43:03.720,10919.41013654167,0,-2.111908,97.42488,192.168.1.101,100.78.239.175,2,1,0.38,0
2016-03-02 02:43:07.106,12,234B9614-18C8-49ED-8B56-CAB6C4F40872,my_iOS_device_1,1456908186.995615,40.79923165500238,-96.68578282007638,370.0332,0.41,306.2109375,4,12.51905780375387,-9999,1456908187.078991,26.25156211853027,38.89364624023438,14.60198974609375,288.8482360839844,285.5711059570312,25,10920.48954554167,0.117095947265625,1.000411987304688,0.130218505859375,10920.46941154167,-0.005287440028243319,0.002116946750503986,-0.002209358440329736,10920.46941154167,2.604442518762588,2.408882804999506,-1.408318457366661,0.01473264116793871,-0.027752835303545,0.004119879566133022,0.01106098387390375,0.009966171346604824,0.00890081562101841,XArbitraryCorrectedZVertical,0.7476067907824651,0.03476886676480769,-0.1028371531336127,-0.6552096856848083,0.1082017123699188,0.9868294596672058,0.1202495768666267,23.7121696472168,34.10634994506836,13.20082855224609,1,10919.70826254167,walking,0,2016-03-02 02:43:06.268,2016-03-02 02:41:14.235,40,40.52893,1,1,2016-03-02 02:43:03.720,10919.41013654167,0,-2.111908,97.42488,192.168.1.101,100.78.239.175,2,1,0.38,0
2016-03-02 02:43:07.107,13,234B9614-18C8-49ED-8B56-CAB6C4F40872,my_iOS_device_1,1456908186.995615,40.79923165500238,-96.68578282007638,370.0332,0.41,306.2109375,4,12.51905780375387,-9999,1456908187.078991,26.25156211853027,38.89364624023438,14.60198974609375,288.8482360839844,285.5711059570312,25,10920.51984454167,0.115264892578125,1.00225830078125,0.130767822265625,10920.50441654167,0.007531153246635077,-0.003202184894711276,-0.006283462275932955,10920.46941154167,2.604442518762588,2.408882804999506,-1.408318457366661,0.01473264116793871,-0.027752835303545,0.004119879566133022,0.01106098387390375,0.009966171346604824,0.00890081562101841,XArbitraryCorrectedZVertical,0.7476067907824651,0.03476886676480769,-0.1028371531336127,-0.6552096856848083,0.1082017123699188,0.9868294596672058,0.1202495768666267,23.7121696472168,34.10634994506836,13.20082855224609,1,10919.70826254167,walking,0,2016-03-02 02:43:06.268,2016-03-02 02:41:14.235,40,40.52893,1,1,2016-03-02 02:43:03.720,10919.41013654167,0,-2.111908,97.42488,192.168.1.101,100.78.239.175,2,1,0.38,0
2016-03-02 02:43:07.137,14,234B9614-18C8-49ED-8B56-CAB6C4F40872,my_iOS_device_1,1456908186.995615,40.79923165500238,-96.68578282007638,370.0332,0.41,306.2109375,4,12.51905780375387,-9999,1456908187.135807,26.39002799987793,38.61526489257812,14.33795166015625,288.8983154296875,285.6211853027344,25,10920.55011754167,0.119171142578125,1.00360107421875,0.133209228515625,10920.53943254167,0.009634251559470652,-0.01595846020008182,-0.005180647268531142,10920.50441654167,2.601213530234483,2.404760341159586,-1.408230908793496,0.02754964679479599,-0.03307151049375534,4.684121449827217e-05,0.004831857979297638,0.01490892563015223,0.01163376308977604,XArbitraryCorrectedZVertical,0.7474728425823394,0.03489398650310151,-0.1033382177909152,-0.6552770193220373,0.1087545678019524,0.986815333366394,0.1198664829134941,23.77491760253906,34.07768249511719,13.16194534301758,1,10919.70826254167,walking,0,2016-03-02 02:43:06.268,2016-03-02 02:41:14.235,40,40.52893,1,1,2016-03-02 02:43:03.720,10919.41013654167,0,-2.111908,97.42488,192.168.1.101,100.78.239.175,2,1,0.38,0
2016-03-02 02:43:07.184,15,234B9614-18C8-49ED-8B56-CAB6C4F40872,my_iOS_device_1,1456908186.995615,40.79923165500238,-96.68578282007638,370.0332,0.41,306.2109375,4,12.51905780375387,-9999,1456908187.135807,26.39002799987793,38.61526489257812,14.33795166015625,288.8983154296875,285.6211853027344,25,10920.58042154167,0.1195220947265625,0.9939727783203125,0.1268157958984375,10920.57444954167,0.01487295573976552,-0.02444701985860038,0.0002284992215287987,10920.53943254167,2.598458216835479,2.400687267836466,-1.408385355472988,0.02965110912919044,-0.04582727327942848,0.00115022121462971,0.007438130676746368,0.01816458068788052,0.01345665939152241,XArbitraryCorrectedZVertical,0.7472708632330552,0.03523193392203548,-0.1039253590638546,-0.6553964354026229,0.1091390177607536,0.9868403077125549,0.1193100661039352,23.78617095947266,34.07807922363281,13.14057731628418,1,10919.70826254167,walking,0,2016-03-02 02:43:06.268,2016-03-02 02:41:14.235,40,40.52893,1,1,2016-03-02 02:43:03.720,10919.41013654167,0,-2.111908,97.42488,192.168.1.101,100.78.239.175,2,1,0.38,0
2016-03-02 02:43:07.196,16,234B9614-18C8-49ED-8B56-CAB6C4F40872,my_iOS_device_1,1456908186.995615,40.79923165500238,-96.68578282007638,370.0332,0.41,306.2109375,4,12.51905780375387,-9999,1456908187.195208,26.45925903320312,38.75447082519531,14.20599365234375,288.9291076660156,285.6519775390625,25,10920.61069454167,0.116180419921875,0.9954681396484375,0.1258697509765625,10920.57444954167,0.01487295573976552,-0.02444701985860038,0.0002284992215287987,10920.57444954167,2.593777587394382,2.39429450902797,-1.408291760308072,0.03488743305206299,-0.05431525781750679,0.006560821086168289,0.007118410430848598,0.01016885414719582,0.01039641443639994,XArbitraryCorrectedZVertical,0.7470438053781657,0.03555831949616352,-0.104799161569281,-0.6554985083850855,0.1099622771143913,0.986825168132782,0.1186776831746101,23.82526016235352,34.0714111328125,13.0869255065918,1,10919.70826254167,walking,0,2016-03-02 02:43:06.268,2016-03-02 02:41:14.235,40,40.52893,1,1,2016-03-02 02:43:03.720,10919.41013654167,0,-2.111908,97.42488,192.168.1.101,100.78.239.175,2,1,0.38,0
2016-03-02 02:43:07.227,17,234B9614-18C8-49ED-8B56-CAB6C4F40872,my_iOS_device_1,1456908186.995615,40.79923165500238,-96.68578282007638,370.0332,0.41,306.2109375,4,12.51905780375387,-9999,1456908187.195208,26.45925903320312,38.75447082519531,14.20599365234375,288.9291076660156,285.6519775390625,25,10920.64099954167,0.115447998046875,1.0001220703125,0.121002197265625,10920.60946054167,-0.006366020269725411,-0.0372325899359618,-0.003270628134726312,10920.60946054167,2.590139603310104,2.388524272743882,-1.408118005651573,0.01364678516983986,-0.06710051745176315,0.003063146257773042,0.008729075081646442,0.009464559145271778,0.0118385823443532,XArbitraryCorrectedZVertical,0.7468489192995059,0.03605332032568103,-0.1057983635763162,-0.655533032042784,0.1107624992728233,0.986797034740448,0.1181662976741791,23.85054016113281,34.06852722167969,13.04833889007568,1,10919.70826254167,walking,0,2016-03-02 02:43:06.268,2016-03-02 02:41:14.235,40,40.52893,1,1,2016-03-02 02:43:03.720,10919.41013654167,0,-2.111908,97.42488,192.168.1.101,100.78.239.175,2,1,0.38,0
2016-03-02 02:43:07.262,18,234B9614-18C8-49ED-8B56-CAB6C4F40872,my_iOS_device_1,1456908186.995615,40.79923165500238,-96.68578282007638,370.0332,0.41,306.2109375,4,12.51905780375387,-9999,1456908187.251883,26.70157241821289,38.85888671875,13.64495849609375,288.9257507324219,285.6486206054688,25,10920.67128754167,0.10870361328125,0.9998321533203125,0.12738037109375,10920.64446354167,-0.0169693961498759,-0.03192943725728701,-0.005558816143322394,10920.64446354167,2.588062954437197,2.384210155708664,-1.407993663587268,0.003042518859729171,-0.06179707124829292,0.0007756299455650151,0.004092447925359011,0.01334517914801836,0.00322567974217236,XArbitraryCorrectedZVertical,0.7466886508196081,0.0366649352817006,-0.1067548248588074,-0.6555266193125385,0.1113555505871773,0.9867768883705139,0.117776520550251,23.90536880493164,34.05614852905273,12.98014068603516,1,10919.70826254167,walking,0,2016-03-02 02:43:06.268,2016-03-02 02:41:14.235,40,40.52893,1,1,2016-03-02 02:43:03.720,10919.41013654167,0,-2.111908,97.42488,192.168.1.101,100.78.239.175,2,1,0.38,0
2016-03-02 02:43:07.287,19,234B9614-18C8-49ED-8B56-CAB6C4F40872,my_iOS_device_1,1456908186.995615,40.79923165500238,-96.68578282007638,370.0332,0.41,306.2109375,4,12.51905780375387,-9999,1456908187.251883,26.70157241821289,38.85888671875,13.64495849609375,288.9257507324219,285.6486206054688,25,10920.70157754167,0.104827880859375,1.002853393554688,0.1201324462890625,10920.67947854167,-0.02012311151274773,-0.02130369082397986,-0.007741542972751338,10920.67947854167,2.589755763870295,2.383935691288567,-1.407806674733551,-0.0001122789617511444,-0.05117081105709076,-0.001407442265190184,-0.002811059588566422,0.01308558695018291,0.009500381536781788,XArbitraryCorrectedZVertical,0.7466895316283354,0.03734619179450055,-0.1074516643839447,-0.6553732868649779,0.1115146726369858,0.9867465496063232,0.1178799867630005,23.95785903930664,34.05025100708008,12.89858055114746,1,10919.70826254167,walking,0,2016-03-02 02:43:06.268,2016-03-02 02:41:14.235,40,40.52893,1,1,2016-03-02 02:43:03.720,10919.41013654167,0,-2.111908,97.42488,192.168.1.101,100.78.239.175,2,1,0.38,0
2016-03-02 02:43:07.346,20,234B9614-18C8-49ED-8B56-CAB6C4F40872,my_iOS_device_1,1456908186.995615,40.79923165500238,-96.68578282007638,370.0332,0.41,306.2109375,4,12.51905780375387,-9999,1456908187.315218,27.22080993652344,38.82411193847656,13.281982421875,288.8880615234375,285.6109313964844,25,10920.73188254167,0.1125640869140625,1.009475708007812,0.117431640625,10920.71447754167,-0.02330931744091853,-0.01492568632934909,-0.007791077769026811,10920.71447754167,2.593047398662149,2.385589729640631,-1.408054631827042,-0.003299150383099914,-0.04479209333658218,-0.001458566286601126,-0.003058428643271327,0.01652438566088676,0.002734472043812275,XArbitraryCorrectedZVertical,0.7466542113687732,0.0380869577755001,-0.1078603330072604,-0.6553037622783991,0.1111516878008842,0.9867867827415466,0.1178862527012825,23.96052551269531,34.05525588989258,12.88040161132812,1,10919.70826254167,walking,0,2016-03-02 02:43:06.268,2016-03-02 02:41:14.235,40,40.52893,1,1,2016-03-02 02:43:03.720,10920.72309454167,0,-2.308105,97.42716,192.168.1.101,100.78.239.175,2,1,0.38,0
2016-03-02 02:43:07.348,21,234B9614-18C8-49ED-8B56-CAB6C4F40872,my_iOS_device_1,1456908186.995615,40.79923165500238,-96.68578282007638,370.0332,0.41,306.2109375,4,12.51905780375387,-9999,1456908187.315218,27.22080993652344,38.82411193847656,13.281982421875,288.8880615234375,285.6109313964844,25,10920.76215354167,0.1132049560546875,1.002548217773438,0.1157379150390625,10920.74950354167,-0.01049445259156625,-0.04470595258694215,-0.01291846181575637,10920.74950354167,2.592420780272979,2.383024500451584,-1.408182954299651,0.009532934986054897,-0.07457831501960754,-0.006590831559151411,0.01297724805772305,0.02288177609443665,0.005583822727203369,XArbitraryCorrectedZVertical,0.7464951878664886,0.03872142655700685,-0.1085854913472955,-0.6553279916853938,0.1113666221499443,0.9868075251579285,0.1175088286399841,23.96243095397949,34.06139373779297,12.86061477661133,1,10919.70826254167,walking,0,2016-03-02 02:43:06.268,2016-03-02 02:41:14.235,40,40.52893,1,1,2016-03-02 02:43:03.720,10920.72309454167,0,-2.308105,97.42716,192.168.1.101,100.78.239.175,2,1,0.38,0
2016-03-02 02:43:07.378,22,234B9614-18C8-49ED-8B56-CAB6C4F40872,my_iOS_device_1,1456908186.995615,40.79923165500238,-96.68578282007638,370.0332,0.41,306.2109375,4,12.51905780375387,-9999,1456908187.370049,27.39389038085938,38.99809265136719,13.51300048828125,288.8524475097656,285.5753173828125,25,10920.79245854167,0.1193389892578125,0.9918670654296875,0.0978851318359375,10920.78452554167,-0.0105330684273724,-0.07660502980780226,-0.01183695209707519,10920.74950354167,2.592420780272979,2.383024500451584,-1.408182954299651,0.009532934986054897,-0.07457831501960754,-0.006590831559151411,0.01297724805772305,0.02288177609443665,0.005583822727203369,XArbitraryCorrectedZVertical,0.7464951878664886,0.03872142655700685,-0.1085854913472955,-0.6553279916853938,0.1113666221499443,0.9868075251579285,0.1175088286399841,23.96243095397949,34.06139373779297,12.86061477661133,1,10919.70826254167,walking,0,2016-03-02 02:43:06.268,2016-03-02 02:41:14.235,40,40.52893,1,1,2016-03-02 02:43:03.720,10920.72309454167,0,-2.308105,97.42716,192.168.1.101,100.78.239.175,2,1,0.38,0
2016-03-02 02:43:07.427,23,234B9614-18C8-49ED-8B56-CAB6C4F40872,my_iOS_device_1,1456908186.995615,40.79923165500238,-96.68578282007638,370.0332,0.41,306.2109375,4,12.51905780375387,-9999,1456908187.370049,27.39389038085938,38.99809265136719,13.51300048828125,288.8524475097656,285.5753173828125,25,10920.82273054167,0.1255340576171875,1.00225830078125,0.0997772216796875,10920.81951054167,-0.03604535272200447,-0.09470786731761588,-0.01432967087738936,10920.78452554167,2.590624800656268,2.377970823981003,-1.408998900043434,0.009495248086750507,-0.1064773574471474,-0.005509571637958288,-0.001584692043252289,0.003859624266624451,-0.0110314479097724,XArbitraryCorrectedZVertical,0.7460499991750176,0.03988525223505036,-0.1097097872820286,-0.6555778580455673,0.1114021986722946,0.9869393110275269,0.1163628697395325,23.99350929260254,34.06271743774414,12.79901504516602,1,10919.70826254167,walking,0,2016-03-02 02:43:06.268,2016-03-02 02:41:14.235,40,40.52893,1,1,2016-03-02 02:43:03.720,10920.72309454167,0,-2.308105,97.42716,192.168.1.101,100.78.239.175,2,1,0.38,0
2016-03-02 02:43:07.439,24,234B9614-18C8-49ED-8B56-CAB6C4F40872,my_iOS_device_1,1456908186.995615,40.79923165500238,-96.68578282007638,370.0332,0.41,306.2109375,4,12.51905780375387,-9999,1456908187.430269,27.56696701049805,39.52008056640625,13.48004150390625,288.8141174316406,285.5369873046875,25,10920.85302654167,0.10748291015625,1.003829956054688,0.1176910400390625,10920.85454654167,-0.01464339125380069,-0.09897185453894175,-0.02360839043133443,10920.81951054167,2.585634395759985,2.36861034558286,-1.409319731335262,-0.01601322740316391,-0.1245812922716141,-0.008000040426850319,0.01670188084244728,0.01239868998527527,-0.02233016304671764,XArbitraryCorrectedZVertical,0.7455533148235132,0.04116339917212094,-0.1114958726416802,-0.6557625330164248,0.112265408039093,0.9869909882545471,0.1150883436203003,24.00684356689453,34.07598876953125,12.7385425567627,1,10919.70826254167,walking,0,2016-03-02 02:43:06.268,2016-03-02 02:41:14.235,40,40.52893,1,1,2016-03-02 02:43:03.720,10920.72309454167,0,-2.308105,97.42716,192.168.1.101,100.78.239.175,2,1,0.38,0
2016-03-02 02:43:07.470,25,234B9614-18C8-49ED-8B56-CAB6C4F40872,my_iOS_device_1,1456908186.995615,40.79923165500238,-96.68578282007638,370.0332,0.41,306.2109375,4,12.51905780375387,-9999,1456908187.430269,27.56696701049805,39.52008056640625,13.48004150390625,288.8141174316406,285.5369873046875,25,10920.88333354167,0.0968170166015625,1.001617431640625,0.123504638671875,10920.85454654167,-0.01464339125380069,-0.09897185453894175,-0.02360839043133443,10920.85454654167,2.584708023672191,2.363013278630544,-1.409954278172267,0.005390597973018885,-0.1288455724716187,-0.01727850176393986,-0.004985042382031679,0.01673717610538006,0.003678742796182632,XArbitraryCorrectedZVertical,0.7451005631616665,0.04279368388176117,-0.1131417232451937,-0.6558908459927477,0.1124679520726204,0.9870927929878235,0.1140122935175896,24.07841873168945,34.08386993408203,12.58140277862549,1,10919.70826254167,walking,0,2016-03-02 02:43:06.268,2016-03-02 02:41:14.235,40,40.52893,1,1,2016-03-02 02:43:03.720,10920.72309454167,0,-2.308105,97.42716,192.168.1.101,100.78.239.175,2,1,0.38,0
2016-03-02 02:43:07.504,26,234B9614-18C8-49ED-8B56-CAB6C4F40872,my_iOS_device_1,1456908186.995615,40.79923165500238,-96.68578282007638,370.0332,0.41,306.2109375,4,12.51905780375387,-9999,1456908187.486903,27.22080993652344,39.65925598144531,13.61212158203125,288.7883911132812,285.5112609863281,25,10920.91362354167,0.09271240234375,1.003921508789062,0.12506103515625,10920.88956354167,-0.007243798165015528,-0.0627960069235234,-0.01819072182578624,10920.88956354167,2.591384324397057,2.365898852089249,-1.410709332274751,0.01278878748416901,-0.09266892075538635,-0.01186349056661129,-0.01479957159608603,0.01440401189029217,0.009700416587293148,XArbitraryCorrectedZVertical,0.7449307124055669,0.04450106422378911,-0.1140942634789754,-0.6558051448708329,0.1116165891289711,0.9872134327888489,0.1138042211532593,24.13339042663574,34.11549758911133,12.38887405395508,1,10919.70826254167,walking,0,2016-03-02 02:43:06.268,2016-03-02 02:41:14.235,40,40.52893,1,1,2016-03-02 02:43:03.720,10920.72309454167,0,-2.308105,97.42716,192.168.1.101,100.78.239.175,2,1,0.38,0
2016-03-02 02:43:07.530,27,234B9614-18C8-49ED-8B56-CAB6C4F40872,my_iOS_device_1,1456908186.995615,40.79923165500238,-96.68578282007638,370.0332,0.41,306.2109375,4,12.51905780375387,-9999,1456908187.486903,27.22080993652344,39.65925598144531,13.61212158203125,288.7883911132812,285.5112609863281,25,10920.94391654167,0.0919647216796875,1.005355834960938,0.1110687255859375,10920.92457354167,-0.002005892933047682,-0.01385216609393815,-0.009613745219077041,10920.88956354167,2.591384324397057,2.365898852089249,-1.410709332274751,0.01278878748416901,-0.09266892075538635,-0.01186349056661129,-0.01479957159608603,0.01440401189029217,0.009700416587293148,XArbitraryCorrectedZVertical,0.7449307124055669,0.04450106422378911,-0.1140942634789754,-0.6558051448708329,0.1116165891289711,0.9872134327888489,0.1138042211532593,24.13339042663574,34.11549758911133,12.38887405395508,1,10919.70826254167,walking,0,2016-03-02 02:43:06.268,2016-03-02 02:41:14.235,40,40.52893,1,1,2016-03-02 02:43:03.720,10920.72309454167,0,-2.308105,97.42716,192.168.1.101,100.78.239.175,2,1,0.38,0
2016-03-02 02:43:07.583,28,234B9614-18C8-49ED-8B56-CAB6C4F40872,my_iOS_device_1,1456908186.995615,40.79923165500238,-96.68578282007638,370.0332,0.41,306.2109375,4,12.51905780375387,-9999,1456908187.545729,26.94388198852539,39.65924072265625,13.48004150390625,287.9227905273438,284.6456604003906,25,10920.97420554167,0.1117706298828125,1.006729125976562,0.1168212890625,10920.95958554167,-0.00298487094976081,0.04037165791283819,-0.01285294805294042,10920.95958554167,2.59941582268434,2.371477933328271,-1.413116731384798,0.01704634726047516,0.01050064526498318,-0.006534408777952194,-0.009883441030979156,0.01954680494964123,-0.001177079044282436,XArbitraryCorrectedZVertical,0.7444635480663061,0.04618916666782759,-0.1141389984213564,-0.6562109992391216,0.1093249693512917,0.9875943064689636,0.11271882802248,24.0988826751709,34.17856597900391,12.28174781799316,1,10919.70826254167,walking,0,2016-03-02 02:43:06.268,2016-03-02 02:41:14.235,40,40.52893,1,1,2016-03-02 02:43:03.720,10920.72309454167,0,-2.308105,97.42716,192.168.1.101,100.78.239.175,2,1,0.38,0
2016-03-02 02:43:07.591,29,234B9614-18C8-49ED-8B56-CAB6C4F40872,my_iOS_device_1,1456908186.995615,40.79923165500238,-96.68578282007638,370.0332,0.41,306.2109375,4,12.51905780375387,-9999,1456908187.545729,26.94388198852539,39.65924072265625,13.48004150390625,287.9227905273438,284.6456604003906,25,10921.00449454167,0.1180419921875,0.9992523193359375,0.1256103515625,10920.99460054167,0.01501516854197575,0.0478466184604726,-0.006200904282140499,10920.95958554167,2.59941582268434,2.371477933328271,-1.413116731384798,0.01704634726047516,0.01050064526498318,-0.006534408777952194,-0.009883441030979156,0.01954680494964123,-0.001177079044282436,XArbitraryCorrectedZVertical,0.7444635480663061,0.04618916666782759,-0.1141389984213564,-0.6562109992391216,0.1093249693512917,0.9875943064689636,0.11271882802248,24.0988826751709,34.17856597900391,12.28174781799316,1,10919.70826254167,walking,0,2016-03-02 02:43:06.268,2016-03-02 02:41:14.235,40,40.52893,1,1,2016-03-02 02:43:03.720,10920.72309454167,0,-2.308105,97.42716,192.168.1.101,100.78.239.175,2,1,0.38,0
2016-03-02 02:43:07.621,30,234B9614-18C8-49ED-8B56-CAB6C4F40872,my_iOS_device_1,1456908186.995615,40.79923165500238,-96.68578282007638,370.0332,0.41,306.2109375,4,12.51905780375387,-9999,1456908187.604613,26.80541801452637,39.17205810546875,13.28204345703125,288.0033264160156,284.7261962890625,25,10921.03478854167,0.1219940185546875,0.99951171875,0.11773681640625,10921.02961154167,0.00861852191971443,0.04784475424770954,-0.005228051535934553,10920.99460054167,2.596878319945304,2.369545794564046,-1.413421797337066,0.03504476323723793,0.01797592081129551,0.0001182485284516588,0.01041860319674015,0.01376164332032204,0.01411229185760021,XArbitraryCorrectedZVertical,0.7443351251356944,0.04594540302500957,-0.1139607208594939,-0.656404749778109,0.109332375228405,0.9876421689987183,0.1122915148735046,24.06687927246094,34.20702743530273,12.26526260375977,1,10919.70826254167,walking,0,2016-03-02 02:43:06.268,2016-03-02 02:41:14.235,40,40.52893,1,1,2016-03-02 02:43:03.720,10920.72309454167,0,-2.308105,97.42716,192.168.1.101,100.78.239.175,2,1,0.38,0
2016-03-02 02:43:07.662,31,234B9614-18C8-49ED-8B56-CAB6C4F40872,my_iOS_device_1,1456908186.995615,40.79923165500238,-96.68578282007638,370.0332,0.41,306.2109375,4,12.51905780375387,-9999,1456908187.604613,26.80541801452637,39.17205810546875,13.28204345703125,288.0033264160156,284.7261962890625,25,10921.06508054167,0.119415283203125,0.9995880126953125,0.108123779296875,10921.02961154167,0.00861852191971443,0.04784475424770954,-0.005228051535934553,10921.02961154167,2.590142998888159,2.363592000993665,-1.4136634174856,0.0286466870456934,0.01797408796846867,0.001093191560357809,0.0143750412389636,0.01195378415286541,0.003185939509421587,XArbitraryCorrectedZVertical,0.7440893046716719,0.04544675424631413,-0.1139135159564398,-0.6567262824679111,0.1098315045237541,0.9876800179481506,0.1114685982465744,24.07594299316406,34.20259475708008,12.25982189178467,1,10919.70826254167,walking,0,2016-03-02 02:43:06.268,2016-03-02 02:41:14.235,40,40.52893,1,1,2016-03-02 02:43:03.720,10920.72309454167,0,-2.308105,97.42716,192.168.1.101,100.78.239.175,2,1,0.38,0
2016-03-02 02:43:07.682,32,234B9614-18C8-49ED-8B56-CAB6C4F40872,my_iOS_device_1,1456908186.995615,40.79923165500238,-96.68578282007638,370.0332,0.41,306.2109375,4,12.51905780375387,-9999,1456908187.662888,27.22080993652344,38.96324157714844,12.68798828125,286.5922546386719,283.3151245117188,25,10921.09537254167,0.1212005615234375,1.003692626953125,0.1064605712890625,10921.06460754167,0.0128220553842955,0.03828613646319715,-0.001964880252260462,10921.06460754167,2.583526405250341,2.357527469234906,-1.413854289579153,0.03284921869635582,0.008415460586547852,0.004358275327831507,0.009638021700084209,0.009390974417328835,0.003224606160074472,XArbitraryCorrectedZVertical,0.7438459087003757,0.04501957184104192,-0.1139552175830692,-0.6570241324689184,0.110372357070446,0.9877098798751831,0.110666997730732,24.09024620056152,34.19889450073242,12.24204063415527,1,10919.70826254167,walking,0,2016-03-02 02:43:06.268,2016-03-02 02:41:14.235,40,40.52893,1,1,2016-03-02 02:43:03.720,10920.72309454167,0,-2.308105,97.42716,192.168.1.101,100.78.239.175,2,1,0.38,0
2016-03-02 02:43:07.712,33,234B9614-18C8-49ED-8B56-CAB6C4F40872,my_iOS_device_1,1456908186.995615,40.79923165500238,-96.68578282007638,370.0332,0.41,306.2109375,4,12.51905780375387,-9999,1456908187.662888,27.22080993652344,38.96324157714844,12.68798828125,286.5922546386719,283.3151245117188,25,10921.12566154167,0.1266632080078125,0.995391845703125,0.11358642578125,10921.09963854167,6.657902725198096e-05,0.01062228432389005,-0.004267449330742972,10921.09963854167,2.574841607471767,2.348760498500692,-1.414217629712745,0.02009529061615467,-0.01924879290163517,0.002058073878288269,0.01011789590120316,0.01592604629695415,-0.002982676029205322,XArbitraryCorrectedZVertical,0.7434506281899879,0.04475250948526461,-0.1142821058000181,-0.6574328685368377,0.1110826656222343,0.9877665638923645,0.1094432473182678,24.10115242004395,34.19777297973633,12.22369384765625,1,10919.70826254167,walking,0,2016-03-02 02:43:06.268,2016-03-02 02:41:14.235,40,40.52893,1,1,2016-03-02 02:43:03.720,10920.72309454167,0,-2.308105,97.42716,192.168.1.101,100.78.239.175,2,1,0.38,0
2016-03-02 02:43:07.743,34,234B9614-18C8-49ED-8B56-CAB6C4F40872,my_iOS_device_1,1456908186.995615,40.79923165500238,-96.68578282007638,370.0332,0.41,306.2109375,4,12.51905780375387,-9999,1456908187.723067,26.90926551818848,38.92842102050781,12.1929931640625,286.0138244628906,282.7366943359375,25,10921.15593654167,0.12652587890625,0.998565673828125,0.1198272705078125,10921.13465054167,-0.01265960255780067,-0.01704742676981522,-0.008701079913506887,10921.09963854167,2.574841607471767,2.348760498500692,-1.414217629712745,0.02009529061615467,-0.01924879290163517,0.002058073878288269,0.01011789590120316,0.01592604629695415,-0.002982676029205322,XArbitraryCorrectedZVertical,0.7434506281899879,0.04475250948526461,-0.1142821058000181,-0.6574328685368377,0.1110826656222343,0.9877665638923645,0.1094432473182678,24.10115242004395,34.19777297973633,12.22369384765625,1,10919.70826254167,walking,0,2016-03-02 02:43:06.268,2016-03-02 02:41:14.235,40,40.52893,1,1,2016-03-02 02:43:03.720,10920.72309454167,0,-2.308105,97.42716,192.168.1.101,100.78.239.175,2,1,0.38,0
2016-03-02 02:43:07.772,35,234B9614-18C8-49ED-8B56-CAB6C4F40872,my_iOS_device_1,1456908186.995615,40.79923165500238,-96.68578282007638,370.0332,0.41,306.2109375,4,12.51905780375387,-9999,1456908187.723067,26.90926551818848,38.92842102050781,12.1929931640625,286.0138244628906,282.7366943359375,25,10921.18622454167,0.122528076171875,0.99822998046875,0.1194000244140625,10921.16966154167,-0.01262258461864857,-0.04577095070686484,-0.01294882185218327,10921.13465054167,2.569220671564349,2.341796999891108,-1.41407412217742,0.007368805352598429,-0.04691871628165245,-0.002372655784711242,0.01471946854144335,0.007647654041647911,0.004820570349693298,XArbitraryCorrectedZVertical,0.7432126869146747,0.0449202590120912,-0.1150538064163077,-0.6575558485546706,0.1119437366724014,0.9877442121505737,0.1087658554315567,24.13690185546875,34.19413757324219,12.16317558288574,1,10919.70826254167,walking,0,2016-03-02 02:43:06.268,2016-03-02 02:41:14.235,40,40.52893,1,1,2016-03-02 02:43:03.720,10920.72309454167,0,-2.308105,97.42716,192.168.1.101,100.78.239.175,2,1,0.38,0
2016-03-02 02:43:07.824,36,234B9614-18C8-49ED-8B56-CAB6C4F40872,my_iOS_device_1,1456908186.995615,40.79923165500238,-96.68578282007638,370.0332,0.41,306.2109375,4,12.51905780375387,-9999,1456908187.781244,26.39002799987793,39.450439453125,12.159912109375,286.0104064941406,282.7332763671875,25,10921.21652954167,0.1261749267578125,0.9921112060546875,0.101715087890625,10921.20465654167,-0.01277758059409118,-0.07658319188686362,-0.003343598748594483,10921.16966154167,2.567573149257762,2.337932779665474,-1.413146796592587,0.007402902934700251,-0.07564213126897812,-0.006616070866584778,0.01492239627987146,0.01546798832714558,0.01064547803252935,XArbitraryCorrectedZVertical,0.743253550495705,0.04536787684411135,-0.1161527321885914,-0.6572856747497923,0.1130225509405136,0.9875990152359009,0.1089681684970856,24.16374778747559,34.18491363525391,12.13577747344971,1,10919.70826254167,walking,0,2016-03-02 02:43:06.268,2016-03-02 02:41:14.235,40,40.52893,1,1,2016-03-02 02:43:03.720,10920.72309454167,0,-2.308105,97.42716,192.168.1.101,100.78.239.175,2,1,0.38,0
2016-03-02 02:43:07.833,37,234B9614-18C8-49ED-8B56-CAB6C4F40872,my_iOS_device_1,1456908186.995615,40.79923165500238,-96.68578282007638,370.0332,0.41,306.2109375,4,12.51905780375387,-9999,1456908187.781244,26.39002799987793,39.450439453125,12.159912109375,286.0104064941406,282.7332763671875,25,10921.24681754167,0.118682861328125,1.003082275390625,0.1109466552734375,10921.20465654167,-0.01277758059409118,-0.07658319188686362,-0.003343598748594483,10921.20465654167,2.566485766718567,2.333579770886406,-1.412862685779509,0.007246014662086964,-0.1064541414380074,0.002991087501868606,0.006082840263843536,0.01026360876858234,0.00586345698684454,XArbitraryCorrectedZVertical,0.7430935841094517,0.04632960400822392,-0.1174757678272381,-0.6571643150850399,0.1136986538767815,0.9875543713569641,0.1086690127849579,24.2234058380127,34.16044998168945,12.08562088012695,1,10919.70826254167,walking,0,2016-03-02 02:43:06.268,2016-03-02 02:41:14.235,40,40.52893,1,1,2016-03-02 02:43:03.720,10920.72309454167,0,-2.308105,97.42716,192.168.1.101,100.78.239.175,2,1,0.38,0
2016-03-02 02:43:07.863,38,234B9614-18C8-49ED-8B56-CAB6C4F40872,my_iOS_device_1,1456908186.995615,40.79923165500238,-96.68578282007638,370.0332,0.41,306.2109375,4,12.51905780375387,-9999,1456908187.841169,26.52849006652832,39.52001953125,12.15997314453125,286.0167236328125,282.7395935058594,25,10921.27710954167,0.1107177734375,1.007705688476562,0.115020751953125,10921.23968654167,-0.05957225042398248,-0.08725527732313815,-0.00508344188874325,10921.23968654167,2.565314378336214,2.32817376753515,-1.412106255416497,-0.03954797983169556,-0.1171265989542007,0.00125374726485461,0.006647985894232988,0.01076433155685663,0.0005191266536712646,XArbitraryCorrectedZVertical,0.7429851716132813,0.04749750456094613,-0.1192672712925045,-0.6568807653004347,0.1148272305727005,0.9874351024627686,0.1085659563541412,24.33382034301758,34.13373947143555,11.93838882446289,1,10919.70826254167,walking,0,2016-03-02 02:43:06.268,2016-03-02 02:41:14.235,40,40.52893,1,1,2016-03-02 02:43:03.720,10920.72309454167,0,-2.308105,97.42716,192.168.1.101,100.78.239.175,2,1,0.38,0
2016-03-02 02:43:07.902,39,234B9614-18C8-49ED-8B56-CAB6C4F40872,my_iOS_device_1,1456908186.995615,40.79923165500238,-96.68578282007638,370.0332,0.41,306.2109375,4,12.51905780375387,-9999,1456908187.898707,26.94387817382812,39.17205810546875,12.35809326171875,286.1576843261719,282.8805541992188,25,10921.30739854167,0.0995330810546875,1.001251220703125,0.1044921875,10921.27468454167,-0.04902053986897953,-0.06383197658756422,0.00251801881066992,10921.27468454167,2.573106145273088,2.332251792379492,-1.410949722550004,-0.02899781242012978,-0.09370266646146774,0.00885430071502924,-0.007132083643227816,0.01906542852520943,0.01279842853546143,XArbitraryCorrectedZVertical,0.7433236979039161,0.04879016731992225,-0.1205658745524301,-0.6561655809326848,0.115210086107254,0.9872516989707947,0.1098212003707886,24.3665771484375,34.12006378173828,11.91062927246094,1,10919.70826254167,walking,0,2016-03-02 02:43:06.268,2016-03-02 02:41:14.235,40,40.52893,1,1,2016-03-02 02:43:03.720,10920.72309454167,0,-2.308105,97.42716,192.168.1.101,100.78.239.175,2,1,0.38,0
2016-03-02 02:43:07.924,40,234B9614-18C8-49ED-8B56-CAB6C4F40872,my_iOS_device_1,1456908186.995615,40.79923165500238,-96.68578282007638,370.0332,0.41,306.2109375,4,12.51905780375387,-9999,1456908187.898707,26.94387817382812,39.17205810546875,12.35809326171875,286.1576843261719,282.8805541992188,25,10921.33769154167,0.1080474853515625,0.9990692138671875,0.1034088134765625,10921.30971354167,-0.02872512183370367,-0.02767290688701336,-0.0014687333411787,10921.30971354167,2.575416926241067,2.331965405888205,-1.411138721314598,-0.008700449019670486,-0.0575433149933815,0.004864558111876249,-0.0155733535066247,0.01396944560110569,-0.005167308729141951,XArbitraryCorrectedZVertical,0.7432032818845531,0.04978583969553377,-0.1213887076953079,-0.6560754785890736,0.1151064336299896,0.9872817993164062,0.1096594929695129,24.38694763183594,34.10923004150391,11.89996719360352,1,10919.70826254167,walking,0,2016-03-02 02:43:06.268,2016-03-02 02:41:14.235,40,40.52893,1,1,2016-03-02 02:43:03.720,10920.72309454167,0,-2.308105,97.42716,192.168.1.101,100.78.239.175,2,1,0.38,0
2016-03-02 02:43:07.954,41,234B9614-18C8-49ED-8B56-CAB6C4F40872,my_iOS_device_1,1456908186.995615,40.79923165500238,-96.68578282007638,370.0332,0.41,306.2109375,4,12.51905780375387,-9999,1456908187.898707,26.94387817382812,39.17205810546875,12.35809326171875,286.1576843261719,282.8805541992188,25,10921.36798354167,0.1065216064453125,1.00628662109375,0.0984344482421875,10921.34472654167,-0.02865907543866971,0.02123764442894589,-0.003624295927488835,10921.30971354167,2.575416926241067,2.331965405888205,-1.411138721314598,-0.008700449019670486,-0.0575433149933815,0.004864558111876249,-0.0155733535066247,0.01396944560110569,-0.005167308729141951,XArbitraryCorrectedZVertical,0.7432032818845531,0.04978583969553377,-0.1213887076953079,-0.6560754785890736,0.1151064336299896,0.9872817993164062,0.1096594929695129,24.38694763183594,34.10923004150391,11.89996719360352,1,10919.70826254167,walking,0,2016-03-02 02:43:06.268,2016-03-02 02:41:14.235,40,40.52893,1,1,2016-03-02 02:43:03.720,10920.72309454167,0,-2.308105,97.42716,192.168.1.101,100.78.239.175,2,1,0.38,0
2016-03-02 02:43:07.987,42,234B9614-18C8-49ED-8B56-CAB6C4F40872,my_iOS_device_1,1456908186.995615,40.79923165500238,-96.68578282007638,370.0332,0.41,306.2109375,4,12.51905780375387,-9999,1456908187.957501,27.5323486328125,39.20684814453125,12.5230712890625,286.2432250976562,282.9660949707031,25,10921.39827554167,0.1142730712890625,1.006622314453125,0.1004486083984375,10921.37973654167,-0.02435194500768455,0.05207358774264637,-0.005709018428802863,10921.37973654167,2.57987246022092,2.335838929759039,-1.412222827107223,-0.004322719294577837,0.02220369130373001,0.0006181128555908799,-0.01048458740115166,0.01887885108590126,-0.009723315015435219,XArbitraryCorrectedZVertical,0.7430611061311626,0.05041623116042177,-0.121172921360706,-0.6562282524545894,0.1139086559414864,0.9874535202980042,0.1093632057309151,24.39414596557617,34.12645721435547,11.8356466293335,1,10919.70826254167,walking,0,2016-03-02 02:43:06.268,2016-03-02 02:41:14.235,40,40.52893,1,1,2016-03-02 02:43:03.720,10920.72309454167,0,-2.308105,97.42716,192.168.1.101,100.78.239.175,2,1,0.38,0
2016-03-02 02:43:08.015,43,234B9614-18C8-49ED-8B56-CAB6C4F40872,my_iOS_device_1,1456908186.995615,40.79923165500238,-96.68578282007638,370.0332,0.41,306.2109375,4,12.51905780375387,-9999,1456908187.994609,27.18618965148926,39.55485534667969,12.58905029296875,286.2429504394531,282.9658203125,25,10921.42856854167,0.12890625,0.9971771240234375,0.0973052978515625,10921.41475254167,-0.01270301208356896,0.06166469609245773,-0.001281779432655137,10921.37973654167,2.57987246022092,2.335838929759039,-1.412222827107223,-0.004322719294577837,0.02220369130373001,0.0006181128555908799,-0.01048458740115166,0.01887885108590126,-0.009723315015435219,XArbitraryCorrectedZVertical,0.7430611061311626,0.05041623116042177,-0.121172921360706,-0.6562282524545894,0.1139086559414864,0.9874535202980042,0.1093632057309151,24.39414596557617,34.12645721435547,11.8356466293335,1,10919.70826254167,walking,0,2016-03-02 02:43:06.268,2016-03-02 02:41:14.235,40,40.52893,1,1,2016-03-02 02:43:03.720,10920.72309454167,0,-2.308105,97.42716,192.168.1.101,100.78.239.175,2,1,0.38,0
2016-03-02 02:43:08.064,44,234B9614-18C8-49ED-8B56-CAB6C4F40872,my_iOS_device_1,1456908186.995615,40.79923165500238,-96.68578282007638,370.0332,0.41,306.2109375,4,12.51905780375387,-9999,1456908188.055219,27.15157508850098,39.86802673339844,12.62200927734375,286.2475891113281,282.970458984375,25,10921.45885754167,0.124664306640625,1.001815795898438,0.0992584228515625,10921.44976354167,-0.007250456067740726,0.064832526209107,-0.01079592242696322,10921.41475254167,2.576541909653581,2.333462214168766,-1.412589746025645,0.00732862064614892,0.03179464861750603,0.005045177415013313,0.005661569070070982,0.01459429319947958,-0.009110411629080772,XArbitraryCorrectedZVertical,0.7429109805045172,0.05004201829858378,-0.1208822577256632,-0.6564804271397188,0.1139063015580177,0.9875113964080811,0.1088418588042259,24.36190414428711,34.15371322631836,11.82342338562012,1,10919.70826254167,walking,0,2016-03-02 02:43:06.268,2016-03-02 02:41:14.235,40,40.52893,1,1,2016-03-02 02:43:03.720,10920.72309454167,0,-2.308105,97.42716,192.168.1.101,100.78.239.175,2,1,0.38,0
2016-03-02 02:43:08.077,45,234B9614-18C8-49ED-8B56-CAB6C4F40872,my_iOS_device_1,1456908186.995615,40.79923165500238,-96.68578282007638,370.0332,0.41,306.2109375,4,12.51905780375387,-9999,1456908188.055219,27.15157508850098,39.86802673339844,12.62200927734375,286.2475891113281,282.970458984375,25,10921.48912454167,0.13037109375,1.002548217773438,0.087432861328125,10921.48477454167,-0.006277070689316764,0.06166070135082262,-0.004385693683142489,10921.44976354167,2.567245848375147,2.325300812788528,-1.41285107463733,0.01278463006019592,0.03496183454990387,-0.004465215839445591,0.01154164131730795,0.01321038138121367,-0.007924108766019344,XArbitraryCorrectedZVertical,0.7425850568602302,0.04932907156660048,-0.1208030210247925,-0.656917579409723,0.114602766931057,0.9875525832176208,0.1077318489551544,24.36906051635742,34.15230941772461,11.81272506713867,1,10919.70826254167,walking,0,2016-03-02 02:43:06.268,2016-03-02 02:41:14.235,40,40.52893,1,1,2016-03-02 02:43:03.720,10920.72309454167,0,-2.308105,97.42716,192.168.1.101,100.78.239.175,2,1,0.38,0
2016-03-02 02:43:08.113,46,234B9614-18C8-49ED-8B56-CAB6C4F40872,my_iOS_device_1,1456908187.995615,40.79923500776365,-96.6857873463041,369.9702,0.41,333.984375,4,14.01761755287903,-9999,1456908188.104598,27.15157508850098,39.52005004882812,12.093994140625,285.3469848632812,282.0698547363281,25,10921.51934441667,0.1295318603515625,0.997039794921875,0.088104248046875,10921.48477454167,-0.006277070689316764,0.06166070135082262,-0.004385693683142489,10921.48477454167,2.559509793140595,2.318764301806262,-1.413304300885352,0.01376084238290787,0.03178952261805534,0.001947467564605176,0.01249554287642241,0.01400894671678543,-0.01429930422455072,XArbitraryCorrectedZVertical,0.7422704414002718,0.04870932780249192,-0.1205863832355905,-0.6573590475429811,0.1149763837456703,0.9876237511634827,0.1066760122776031,24.37261581420898,34.15217971801758,11.80577659606934,1,10919.70826254167,walking,0,2016-03-02 02:43:06.268,2016-03-02 02:41:14.235,40,40.52893,1,1,2016-03-02 02:43:03.720,10920.72309454167,0,-2.308105,97.42716,192.168.1.101,100.78.239.175,2,1,0.38,0
2016-03-02 02:43:08.143,47,234B9614-18C8-49ED-8B56-CAB6C4F40872,my_iOS_device_1,1456908187.995615,40.79923500776365,-96.6857873463041,369.9702,0.41,333.984375,4,14.01761755287903,-9999,1456908188.104598,27.15157508850098,39.52005004882812,12.093994140625,285.3469848632812,282.0698547363281,25,10921.54965341667,0.1201324462890625,0.9959869384765625,0.095703125,10921.51972541667,-0.004224306121083688,0.04040601269090022,-8.202536157444054e-05,10921.51972541667,2.547693065146597,2.307452084485035,-1.41364711380185,0.01581973396241665,0.01053374446928501,0.00625517126172781,0.01360691152513027,0.009362341836094856,-0.01703686825931072,XArbitraryCorrectedZVertical,0.7417914737061782,0.0481244981432767,-0.1208204260639232,-0.6578995872175224,0.1159249469637871,0.9876774549484253,0.1051411181688309,24.37583923339844,34.15268325805664,11.79764556884766,1,10919.70826254167,walking,0,2016-03-02 02:43:06.268,2016-03-02 02:41:14.235,40,40.52893,1,1,2016-03-02 02:43:03.720,10920.72309454167,0,-2.308105,97.42716,192.168.1.101,100.78.239.175,2,1,0.38,0
2016-03-02 02:43:08.177,48,234B9614-18C8-49ED-8B56-CAB6C4F40872,my_iOS_device_1,1456908187.995615,40.79923500776365,-96.6857873463041,369.9702,0.41,333.984375,4,14.01761755287903,-9999,1456908188.16302,27.29004287719727,39.38084411621094,11.7640380859375,285.3322448730469,282.0551147460938,25,10921.57992641667,0.116119384765625,1.006072998046875,0.09613037109375,10921.55473541667,-0.01584820533095254,0.04463617776638208,-0.005581719328697075,10921.55473541667,2.541083467291158,2.301320921821234,-1.414086807778978,0.00419935816898942,0.01476335152983665,0.000757005182094872,0.003888513660058379,0.008240766823291779,-0.008435479365289211,XArbitraryCorrectedZVertical,0.7414748861774724,0.04779430031678129,-0.1208187029000215,-0.6582807448610889,0.1162439361214638,0.9877461791038513,0.1041386052966118,24.4153938293457,34.14812088012695,11.72886371612549,1,10919.70826254167,walking,0,2016-03-02 02:43:06.268,2016-03-02 02:41:14.235,40,40.52893,1,1,2016-03-02 02:43:03.720,10920.72309454167,0,-2.308105,97.42716,192.168.1.101,100.78.239.175,2,1,0.38,0
2016-03-02 02:43:08.223,49,234B9614-18C8-49ED-8B56-CAB6C4F40872,my_iOS_device_1,1456908187.995615,40.79923500776365,-96.6857873463041,369.9702,0.41,333.984375,4,14.01761755287903,-9999,1456908188.16302,27.29004287719727,39.38084411621094,11.7640380859375,285.3322448730469,282.0551147460938,25,10921.61024141667,0.1223907470703125,1.006240844726562,0.0897064208984375,10921.58974741667,-0.02754614041912559,0.04781759000459074,-0.005753226902898178,10921.58974741667,2.540415228074779,2.301208221206567,-1.414162827369561,-0.007497156038880348,0.01794467866420746,0.0005852521862834692,-8.03503135102801e-05,0.01831496506929398,-0.007945033721625805,XArbitraryCorrectedZVertical,0.741465974597972,0.04760158748316286,-0.1206231020106378,-0.6583406144571921,0.1161997318267822,0.9877580404281616,0.1040754020214081,24.41451644897461,34.15089797973633,11.72261238098145,1,10919.70826254167,walking,0,2016-03-02 02:43:06.268,2016-03-02 02:41:14.235,40,40.52893,1,1,2016-03-02 02:43:03.720,10920.72309454167,0,-2.308105,97.42716,192.168.1.101,100.78.239.175,2,1,0.38,0
2016-03-02 02:43:08.237,50,234B9614-18C8-49ED-8B56-CAB6C4F40872,my_iOS_device_1,1456908187.995615,40.79923500776365,-96.6857873463041,369.9702,0.41,333.984375,4,14.01761755287903,-9999,1456908188.222101,27.35927391052246,39.65921020507812,12.02801513671875,285.3187561035156,282.0416259765625,25,10921.64053441667,0.1139373779296875,1.000335693359375,0.0930328369140625,10921.62475641667,-0.01260527407156305,0.05526378841245229,-0.008737298904331964,10921.58974741667,2.540415228074779,2.301208221206567,-1.414162827369561,-0.007497156038880348,0.01794467866420746,0.0005852521862834692,-8.03503135102801e-05,0.01831496506929398,-0.007945033721625805,XArbitraryCorrectedZVertical,0.741465974597972,0.04760158748316286,-0.1206231020106378,-0.6583406144571921,0.1161997318267822,0.9877580404281616,0.1040754020214081,24.41451644897461,34.15089797973633,11.72261238098145,1,10919.70826254167,walking,0,2016-03-02 02:43:06.268,2016-03-02 02:41:14.235,40,40.52893,1,1,2016-03-02 02:43:03.720,10920.72309454167,0,-2.308105,97.42716,192.168.1.101,100.78.239.175,2,1,0.38,0
2016-03-02 02:43:08.264,51,234B9614-18C8-49ED-8B56-CAB6C4F40872,my_iOS_device_1,1456908187.995615,40.79923500776365,-96.6857873463041,369.9702,0.41,333.984375,4,14.01761755287903,-9999,1456908188.222101,27.35927391052246,39.65921020507812,12.02801513671875,285.3187561035156,282.0416259765625,25,10921.67082641667,0.11981201171875,1.001495361328125,0.09613037109375,10921.65977341667,-0.01480105039033338,0.06165723924140552,-0.003443733605581463,10921.62475641667,2.535563615992088,2.297005638529748,-1.41465086658457,0.007447720970958471,0.02539035119116306,-0.002398415701463819,0.00431456882506609,0.01318829227238894,-0.003076816909015179,XArbitraryCorrectedZVertical,0.7412121809373065,0.04730238719099656,-0.1204712434405352,-0.6586756914446334,0.1162756383419037,0.9878340363502502,0.1032660230994225,24.40866088867188,34.15522766113281,11.7221851348877,1,10919.70826254167,walking,0,2016-03-02 02:43:06.268,2016-03-02 02:41:14.235,40,40.52893,1,1,2016-03-02 02:43:03.720,10920.72309454167,0,-2.308105,97.42716,192.168.1.101,100.78.239.175,2,1,0.38,0
2016-03-02 02:43:08.302,52,234B9614-18C8-49ED-8B56-CAB6C4F40872,my_iOS_device_1,1456908187.995615,40.79923500776365,-96.6857873463041,369.9702,0.41,333.984375,4,14.01761755287903,-9999,1456908188.280494,27.18619346618652,39.55482482910156,11.863037109375,285.3094787597656,282.0323486328125,25,10921.70111941667,0.126495361328125,0.9979095458984375,0.0908966064453125,10921.69478441667,-0.01270381103189598,0.0606012958691891,-0.001281246800437122,10921.65977341667,2.532927306417745,2.295509324310671,-1.41524720875368,0.005254209041595459,0.03178355842828751,0.002894404344260693,-0.0008614016114734113,0.01362978760153055,-0.01464291755110025,XArbitraryCorrectedZVertical,0.7410434944043158,0.04695991960600555,-0.1200196385039574,-0.6589723755401263,0.1159889623522758,0.9879266023635864,0.1027013882994652,24.40316390991211,34.16152191162109,11.71529388427734,1,10919.70826254167,walking,0,2016-03-02 02:43:06.268,2016-03-02 02:41:14.235,40,40.52893,1,1,2016-03-02 02:43:03.720,10920.72309454167,0,-2.308105,97.42716,192.168.1.101,100.78.239.175,2,1,0.38,0
2016-03-02 02:43:08.328,53,234B9614-18C8-49ED-8B56-CAB6C4F40872,my_iOS_device_1,1456908187.995615,40.79923500776365,-96.6857873463041,369.9702,0.41,333.984375,4,14.01761755287903,-9999,1456908188.280494,27.18619346618652,39.55482482910156,11.863037109375,285.3094787597656,282.0323486328125,25,10921.73141141667,0.1257476806640625,1.000564575195312,0.096466064453125,10921.69478441667,-0.01270381103189598,0.0606012958691891,-0.001281246800437122,10921.69478441667,2.526456606552564,2.290112140399782,-1.41559211105315,0.007354950066655874,0.03072722256183624,0.005057963076978922,0.008516393601894379,0.01168432366102934,-0.01058655697852373,XArbitraryCorrectedZVertical,0.740789793199875,0.04642380345327478,-0.1198064924894288,-0.65933429845654,0.1162852421402931,0.9879800081253052,0.101849377155304,24.38834381103516,34.17413711547852,11.7093505859375,1,10919.70826254167,walking,0,2016-03-02 02:43:06.268,2016-03-02 02:41:14.235,40,40.52893,1,1,2016-03-02 02:43:03.720,10920.72309454167,0,-2.308105,97.42716,192.168.1.101,100.78.239.175,2,1,0.38,0
2016-03-02 02:43:08.359,54,234B9614-18C8-49ED-8B56-CAB6C4F40872,my_iOS_device_1,1456908187.995615,40.79923500776365,-96.6857873463041,369.9702,0.41,333.984375,4,14.01761755287903,-9999,1456908188.339608,27.08234596252441,39.24162292480469,12.02801513671875,285.3184509277344,282.0413208007812,25,10921.76170241667,0.1235504150390625,1.002609252929688,0.0970458984375,10921.72980341667,-0.02978985363751735,0.04890282814879802,0.002739593813364512,10921.72980341667,2.522157125485547,2.286596353534567,-1.415211867792955,-0.009712890721857548,0.01902258023619652,0.009075053036212921,0.009996541775763035,0.009484872221946716,-0.003419827204197645,XArbitraryCorrectedZVertical,0.7407674871320994,0.04589928564916006,-0.1197799106260159,-0.6594009088523419,0.1169260665774345,0.9879211187362671,0.1016864255070686,24.39208793640137,34.17310333251953,11.70456790924072,1,10919.70826254167,walking,0,2016-03-02 02:43:06.268,2016-03-02 02:41:14.235,40,40.52893,1,1,2016-03-02 02:43:03.720,10920.72309454167,0,-2.308105,97.42716,192.168.1.101,100.78.239.175,2,1,0.38,0
2016-03-02 02:43:08.389,55,234B9614-18C8-49ED-8B56-CAB6C4F40872,my_iOS_device_1,1456908187.995615,40.79923500776365,-96.6857873463041,369.9702,0.41,333.984375,4,14.01761755287903,-9999,1456908188.339608,27.08234596252441,39.24162292480469,12.02801513671875,285.3184509277344,282.0413208007812,25,10921.79199541667,0.122222900390625,1,0.10504150390625,10921.76479641667,-0.02337030382988135,0.04039163162101379,-0.000360059379378713,10921.76479641667,2.518391027621476,2.283314418068415,-1.414831175684599,-0.00329150864854455,0.01051128096878529,0.005977326538413763,0.006006663199514151,0.01474718283861876,-0.00450210040435195,XArbitraryCorrectedZVertical,0.7407457153600949,0.04549488505283997,-0.119842895714729,-0.6594419466157564,0.1175437495112419,0.9878620505332947,0.1015480011701584,24.42273330688477,34.1467399597168,11.71759986877441,1,10919.70826254167,walking,0,2016-03-02 02:43:06.268,2016-03-02 02:41:14.235,40,40.52893,1,1,2016-03-02 02:43:03.720,10920.72309454167,0,-2.308105,97.42716,192.168.1.101,100.78.239.175,2,1,0.38,0
2016-03-02 02:43:08.416,56,234B9614-18C8-49ED-8B56-CAB6C4F40872,my_iOS_device_1,1456908187.995615,40.79923500776365,-96.6857873463041,369.9702,0.41,333.984375,4,14.01761755287903,-9999,1456908188.39019,26.87465286254883,39.24162292480469,12.0941162109375,285.3231201171875,282.0459899902344,25,10921.82228841667,0.1303253173828125,0.999755859375,0.1033782958984375,10921.79979541667,-0.02766971109370527,0.03933382403603432,0.002775280171971574,10921.79979541667,2.517674559303988,2.282932220137797,-1.41447760648105,-0.00759063521400094,0.009453586302697659,0.009113186970353127,0.004375961143523455,0.01219291239976883,0.00331020774319768,XArbitraryCorrectedZVertical,0.7408213361953457,0.04527025449588742,-0.1198312199826082,-0.6593745753462744,0.1178469359874725,0.9878070950508118,0.1017312929034233,24.42273330688477,34.1467399597168,11.71759986877441,1,10919.70826254167,walking,0,2016-03-02 02:43:06.268,2016-03-02 02:41:14.235,40,40.52893,1,1,2016-03-02 02:43:03.720,10920.72309454167,0,-2.308105,97.42716,192.168.1.101,100.78.239.175,2,1,0.38,0
2016-03-02 02:43:08.462,57,234B9614-18C8-49ED-8B56-CAB6C4F40872,my_iOS_device_1,1456908187.995615,40.79923500776365,-96.6857873463041,369.9702,0.41,333.984375,4,14.01761755287903,-9999,1456908188.425751,27.04773330688477,39.20680236816406,11.99505615234375,285.3258056640625,282.0486755371094,25,10921.85256541667,0.117523193359375,0.9976348876953125,0.107452392578125,10921.83483841667,-0.02754933621243369,0.04356398911151618,-0.005751096374026115,10921.79979541667,2.517674559303988,2.282932220137797,-1.41447760648105,-0.00759063521400094,0.009453586302697659,0.009113186970353127,0.004375961143523455,0.01219291239976883,0.00331020774319768,XArbitraryCorrectedZVertical,0.7408213361953457,0.04527025449588742,-0.1198312199826082,-0.6593745753462744,0.1178469359874725,0.9878070950508118,0.1017312929034233,24.42273330688477,34.1467399597168,11.71759986877441,1,10919.70826254167,walking,0,2016-03-02 02:43:06.268,2016-03-02 02:41:14.235,40,40.52893,1,1,2016-03-02 02:43:03.720,10920.72309454167,0,-2.308105,97.42716,192.168.1.101,100.78.239.175,2,1,0.38,0
2016-03-02 02:43:08.469,58,234B9614-18C8-49ED-8B56-CAB6C4F40872,my_iOS_device_1,1456908187.995615,40.79923500776365,-96.6857873463041,369.9702,0.41,333.984375,4,14.01761755287903,-9999,1456908188.425751,27.04773330688477,39.20680236816406,11.99505615234375,285.3258056640625,282.0486755371094,25,10921.88284541667,0.1145172119140625,1.005096435546875,0.119781494140625,10921.86984941667,-0.04668814338628813,0.05312021005104751,-0.00603392408179253,10921.83483841667,2.51671062953159,2.282275281935218,-1.413840049696953,-0.007470823358744383,0.01368408091366291,0.000589007802773267,0.00821145623922348,0.009637340903282166,0.000794441846664995,XArbitraryCorrectedZVertical,0.7409518872898047,0.0449758638925617,-0.1199065594741833,-0.6592343205445523,0.118390716612339,0.9877076148986816,0.1020650565624237,24.44139289855957,34.12575149536133,11.73981475830078,1,10919.70826254167,walking,0,2016-03-02 02:43:06.268,2016-03-02 02:41:14.235,40,40.52893,1,1,2016-03-02 02:43:03.720,10920.72309454167,0,-2.308105,97.42716,192.168.1.101,100.78.239.175,2,1,0.38,0
2016-03-02 02:43:08.500,59,234B9614-18C8-49ED-8B56-CAB6C4F40872,my_iOS_device_1,1456908187.995615,40.79923500776365,-96.6857873463041,369.9702,0.41,333.984375,4,14.01761755287903,-9999,1456908188.477719,26.70157432556152,39.48518371582031,11.79705810546875,285.3245849609375,282.0474548339844,25,10921.91316241667,0.1212005615234375,0.9984588623046875,0.1148223876953125,10921.90486141667,-0.04131867799647037,0.06268601837050312,-0.009158078356564485,10921.86984941667,2.521592225185684,2.287836364652311,-1.41332347470628,-0.02661120146512985,0.02324076369404793,0.000305725377984345,-0.001720269792713225,0.0139906806871295,0.0124518945813179,XArbitraryCorrectedZVertical,0.7412955109133647,0.04482783268976506,-0.11957553210985,-0.6589181459306291,0.1182058677077293,0.9876267313957214,0.1030571386218071,24.44376564025879,34.11354446411133,11.77031517028809,1,10919.70826254167,walking,0,2016-03-02 02:43:06.268,2016-03-02 02:41:14.235,40,40.52893,1,1,2016-03-02 02:43:03.720,10920.72309454167,0,-2.308105,97.42716,192.168.1.101,100.78.239.175,2,1,0.38,0
2016-03-02 02:43:08.543,60,234B9614-18C8-49ED-8B56-CAB6C4F40872,my_iOS_device_1,1456908187.995615,40.79923500776365,-96.6857873463041,369.9702,0.41,333.984375,4,14.01761755287903,-9999,1456908188.536591,26.52849006652832,39.58955383300781,11.5660400390625,285.3229370117188,282.0458068847656,25,10921.94343941667,0.1270294189453125,1.002487182617188,0.1204376220703125,10921.93987641667,-0.04130323166214792,0.06374648911657267,-0.0102241417409232,10921.90486141667,2.531064017174632,2.298441282617197,-1.412474107939097,-0.02124629355967045,0.03280765563249588,-0.002819977235049009,-0.0003468307550065219,0.01023324579000473,0.01043262984603643,XArbitraryCorrectedZVertical,0.7419152439786108,0.04464483024030242,-0.1189597020944498,-0.6583442861926826,0.1177326962351799,0.9874932169914246,0.104862779378891,24.41694641113281,34.10030364990234,11.86397361755371,1,10919.70826254167,walking,0,2016-03-02 02:43:06.268,2016-03-02 02:41:14.235,40,40.52893,1,1,2016-03-02 02:43:03.720,10920.72309454167,0,-2.308105,97.42716,192.168.1.101,100.78.239.175,2,1,0.38,0
2016-03-02 02:43:08.562,61,234B9614-18C8-49ED-8B56-CAB6C4F40872,my_iOS_device_1,1456908187.995615,40.79923500776365,-96.6857873463041,369.9702,0.41,333.984375,4,14.01761755287903,-9999,1456908188.536591,26.52849006652832,39.58955383300781,11.5660400390625,285.3229370117188,282.0458068847656,25,10921.97372841667,0.123260498046875,1.004440307617188,0.10528564453125,10921.93987641667,-0.04130323166214792,0.06374648911657267,-0.0102241417409232,10921.93987641667,2.536585264050549,2.30506548576627,-1.411386399007889,-0.02123367600142956,0.03386871144175529,-0.003884418867528439,0.009776507504284382,0.01266362052410841,0.01381822768598795,XArbitraryCorrectedZVertical,0.7424428251537242,0.04425662578711343,-0.118568620155232,-0.6578460950451557,0.1178327426314354,0.987321138381958,0.1063599959015846,24.4078369140625,34.09189605712891,11.90680122375488,1,10919.70826254167,walking,0,2016-03-02 02:43:06.268,2016-03-02 02:41:14.235,40,40.52893,1,1,2016-03-02 02:43:03.720,10920.72309454167,0,-2.308105,97.42716,192.168.1.101,100.78.239.175,2,1,0.38,0
2016-03-02 02:43:08.593,62,234B9614-18C8-49ED-8B56-CAB6C4F40872,my_iOS_device_1,1456908187.995615,40.79923500776365,-96.6857873463041,369.9702,0.41,333.984375,4,14.01761755287903,-9999,1456908188.536591,26.52849006652832,39.58955383300781,11.5660400390625,285.3229370117188,282.0458068847656,25,10922.00402441667,0.12640380859375,0.998870849609375,0.11212158203125,10921.97488841667,-0.02866360281252284,0.0542089103046719,-0.00150974602196592,10921.97488841667,2.537511133651536,2.306974053929342,-1.41061834978373,-0.008595394901931286,0.02433145232498646,0.004832076840102673,0.005069057457149029,0.01724139414727688,-0.001808192930184305,XArbitraryCorrectedZVertical,0.7427174443654895,0.04379174113918639,-0.1183404689265225,-0.6576082531853027,0.1181914433836937,0.9871988892555237,0.1070938408374786,24.40674018859863,34.06349182128906,11.99006462097168,1,10919.70826254167,walking,0,2016-03-02 02:43:06.268,2016-03-02 02:41:14.235,40,40.52893,1,1,2016-03-02 02:43:03.720,10920.72309454167,0,-2.308105,97.42716,192.168.1.101,100.78.239.175,2,1,0.38,0
2016-03-02 02:43:08.624,63,234B9614-18C8-49ED-8B56-CAB6C4F40872,my_iOS_device_1,1456908187.995615,40.79923500776365,-96.6857873463041,369.9702,0.41,333.984375,4,14.01761755287903,-9999,1456908188.595171,26.77079963684082,39.48516845703125,11.863037109375,285.3128967285156,282.0357666015625,25,10922.03430441667,0.121551513671875,1.001190185546875,0.1078033447265625,10922.00989841667,-0.02651017075508477,0.04995104835385322,-0.003607784328730344,10922.00989841667,2.536829490920056,2.306929495707025,-1.410108123111859,-0.006442368496209383,0.02007371746003628,0.002735623857006431,0.007834337651729584,0.01175344362854958,0.004694830160588026,XArbitraryCorrectedZVertical,0.7428505530521946,0.04343307181231373,-0.1182497512536814,-0.6574980003250328,0.1185694709420204,0.9871174097061157,0.107426755130291,24.41512680053711,34.04705810546875,12.01962280273438,1,10919.70826254167,walking,0,2016-03-02 02:43:06.268,2016-03-02 02:41:14.235,40,40.52893,1,1,2016-03-02 02:43:03.720,10922.03851841667,0,-2.308105,97.42716,192.168.1.101,100.78.239.175,2,1,0.38,0
2016-03-02 02:43:08.652,64,234B9614-18C8-49ED-8B56-CAB6C4F40872,my_iOS_device_1,1456908187.995615,40.79923500776365,-96.6857873463041,369.9702,0.41,333.984375,4,14.01761755287903,-9999,1456908188.595171,26.77079963684082,39.48516845703125,11.863037109375,285.3128967285156,282.0357666015625,25,10922.06461641667,0.1199951171875,1.001327514648438,0.1182098388671875,10922.04491441667,-0.03708664870822546,0.05205814140832391,-0.008025435944953785,10922.04491441667,2.538771633135942,2.30957223710588,-1.409673658870982,-0.01701939292252064,0.02218108251690865,-0.00168148847296834,0.0009504090994596481,0.01577507704496384,0.001941586146131158,XArbitraryCorrectedZVertical,0.7430675778714069,0.04318365478379194,-0.1180057936332843,-0.6573129995251834,0.1186022013425827,0.9870477914810181,0.1080285087227821,24.41714477539062,34.03910064697266,12.03805255889893,1,10919.70826254167,walking,0,2016-03-02 02:43:06.268,2016-03-02 02:41:14.235,40,40.52893,1,1,2016-03-02 02:43:03.720,10922.03851841667,0,-2.308105,97.42716,192.168.1.101,100.78.239.175,2,1,0.38,0
2016-03-02 02:43:08.703,65,234B9614-18C8-49ED-8B56-CAB6C4F40872,my_iOS_device_1,1456908187.995615,40.79923500776365,-96.6857873463041,369.9702,0.41,333.984375,4,14.01761755287903,-9999,1456908188.653955,26.87464714050293,39.45036315917969,11.69805908203125,285.3048706054688,282.0277404785156,25,10922.09490341667,0.1224365234375,1.007537841796875,0.106903076171875,10922.07991041667,-0.0360530758891657,0.05100139908778047,-0.005878395474131903,10922.04491441667,2.538771633135942,2.30957223710588,-1.409673658870982,-0.01701939292252064,0.02218108251690865,-0.00168148847296834,0.0009504090994596481,0.01577507704496384,0.001941586146131158,XArbitraryCorrectedZVertical,0.7430675778714069,0.04318365478379194,-0.1180057936332843,-0.6573129995251834,0.1186022013425827,0.9870477914810181,0.1080285087227821,24.41714477539062,34.03910064697266,12.03805255889893,1,10919.70826254167,walking,0,2016-03-02 02:43:06.268,2016-03-02 02:41:14.235,40,40.52893,1,1,2016-03-02 02:43:03.720,10922.03851841667,0,-2.308105,97.42716,192.168.1.101,100.78.239.175,2,1,0.38,0
2016-03-02 02:43:08.712,66,234B9614-18C8-49ED-8B56-CAB6C4F40872,my_iOS_device_1,1456908187.995615,40.79923500776365,-96.6857873463041,369.9702,0.41,333.984375,4,14.01761755287903,-9999,1456908188.653955,26.87464714050293,39.45036315917969,11.69805908203125,285.3048706054688,282.0277404785156,25,10922.12518641667,0.1157379150390625,1.001800537109375,0.1139678955078125,10922.11493641667,-0.02432185128736666,0.05313112901151684,-0.007840612565302284,10922.07991041667,2.543117134320412,2.314616466725482,-1.409028694172038,-0.01598747819662094,0.02112481370568275,0.000465415243525058,0.002706853672862053,0.01577193848788738,0.004957255907356739,XArbitraryCorrectedZVertical,0.7434245527854458,0.04299002434733421,-0.1177059790384557,-0.6569757184409137,0.1185242235660553,0.9869441390037537,0.1090564131736755,24.40401077270508,34.02230072021484,12.11194610595703,1,10919.70826254167,walking,0,2016-03-02 02:43:06.268,2016-03-02 02:41:14.235,40,40.52893,1,1,2016-03-02 02:43:03.720,10922.03851841667,0,-2.308105,97.42716,192.168.1.101,100.78.239.175,2,1,0.38,0
2016-03-02 02:43:08.742,67,234B9614-18C8-49ED-8B56-CAB6C4F40872,my_iOS_device_1,1456908187.995615,40.79923500776365,-96.6857873463041,369.9702,0.41,333.984375,4,14.01761755287903,-9999,1456908188.713422,26.32079315185547,38.75437927246094,12.0941162109375,285.3079528808594,282.0308227539062,25,10922.15548941667,0.118988037109375,1.002105712890625,0.1134033203125,10922.14995241667,-0.02540842101211899,0.0616433908037371,-0.005729258453087465,10922.11493641667,2.543448003212248,2.315703311949789,-1.408920874159224,-0.004255544859915972,0.02325454540550709,-0.001496217562817037,0.005448028445243835,0.02116040512919426,-0.003025616053491831,XArbitraryCorrectedZVertical,0.7435070472168746,0.04273082571923624,-0.1174351313109286,-0.6569477431319499,0.1184838563203812,0.9869267344474792,0.1092573031783104,24.40075874328613,34.01903915405273,12.12764549255371,1,10919.70826254167,walking,0,2016-03-02 02:43:06.268,2016-03-02 02:41:14.235,40,40.52893,1,1,2016-03-02 02:43:03.720,10922.03851841667,0,-2.308105,97.42716,192.168.1.101,100.78.239.175,2,1,0.38,0
2016-03-02 02:43:08.783,68,234B9614-18C8-49ED-8B56-CAB6C4F40872,my_iOS_device_1,1456908187.995615,40.79923500776365,-96.6857873463041,369.9702,0.41,333.984375,4,14.01761755287903,-9999,1456908188.775785,26.59772491455078,38.61517333984375,12.358154296875,285.32421875,282.0470886230469,25,10922.18579341667,0.1219024658203125,1.001190185546875,0.1164093017578125,10922.18496341667,-0.03178882235173083,0.06376539756031224,-0.005823001723458255,10922.14995241667,2.545896202995735,2.319110285964474,-1.408858989127441,-0.005343029741197824,0.03176729008555412,0.000613776093814522,-0.002295705955475569,0.01483798306435347,0.004403326660394669,XArbitraryCorrectedZVertical,0.7436693169179934,0.04250760104147706,-0.1169865772361068,-0.6568585781391496,0.1181556880474091,0.9869167804718018,0.1097019016742706,24.38666915893555,34.0187873840332,12.15666484832764,1,10919.70826254167,walking,0,2016-03-02 02:43:06.268,2016-03-02 02:41:14.235,40,40.52893,1,1,2016-03-02 02:43:03.720,10922.03851841667,0,-2.308105,97.42716,192.168.1.101,100.78.239.175,2,1,0.38,0
2016-03-02 02:43:08.803,69,234B9614-18C8-49ED-8B56-CAB6C4F40872,my_iOS_device_1,1456908187.995615,40.79923500776365,-96.6857873463041,369.9702,0.41,333.984375,4,14.01761755287903,-9999,1456908188.775785,26.59772491455078,38.61517333984375,12.358154296875,285.32421875,282.0470886230469,25,10922.21606741667,0.1263427734375,1.000808715820312,0.1225128173828125,10922.18496341667,-0.03178882235173083,0.06376539756031224,-0.005823001723458255,10922.18496341667,2.548299289303606,2.322654324547722,-1.408460492917139,-0.01172442082315683,0.03388959541916847,0.0005203124601393938,0.004566214047372341,0.01259823422878981,0.005227285902947187,XArbitraryCorrectedZVertical,0.7439207512121963,0.04214493204271625,-0.1165476836149362,-0.6566752302797554,0.1180534139275551,0.9868524670600891,0.1103885620832443,24.36444282531738,34.01636505126953,12.2079029083252,1,10919.70826254167,walking,0,2016-03-02 02:43:06.268,2016-03-02 02:41:14.235,40,40.52893,1,1,2016-03-02 02:43:03.720,10922.03851841667,0,-2.308105,97.42716,192.168.1.101,100.78.239.175,2,1,0.38,0
2016-03-02 02:43:08.833,70,234B9614-18C8-49ED-8B56-CAB6C4F40872,my_iOS_device_1,1456908187.995615,40.79923500776365,-96.6857873463041,369.9702,0.41,333.984375,4,14.01761755287903,-9999,1456908188.831602,26.73618698120117,39.10237121582031,12.68817138671875,285.36083984375,282.0837097167969,25,10922.24637441667,0.1263427734375,1.003692626953125,0.1258697509765625,10922.21997441667,-0.03703871180860403,0.05736635409306984,-0.01122469136246597,10922.21997441667,2.551605895080044,2.327026999251801,-1.407675432358627,-0.01697702147066593,0.02749104984104633,-0.004879607353359461,0.008209648542106152,0.01408345438539982,0.01107752695679665,XArbitraryCorrectedZVertical,0.7442942292077525,0.04175818037229991,-0.1161827913027403,-0.6563413088821369,0.1181331276893616,0.9867252707481384,0.1114352941513062,24.35837364196777,34.01010131835938,12.23742389678955,1,10919.70826254167,walking,0,2016-03-02 02:43:06.268,2016-03-02 02:41:14.235,40,40.52893,1,1,2016-03-02 02:43:03.720,10922.03851841667,0,-2.308105,97.42716,192.168.1.101,100.78.239.175,2,1,0.38,0
2016-03-02 02:43:08.862,71,234B9614-18C8-49ED-8B56-CAB6C4F40872,my_iOS_device_1,1456908187.995615,40.79923500776365,-96.6857873463041,369.9702,0.41,333.984375,4,14.01761755287903,-9999,1456908188.831602,26.73618698120117,39.10237121582031,12.68817138671875,285.36083984375,282.0837097167969,25,10922.27665441667,0.1153564453125,0.9984130859375,0.1264495849609375,10922.25497441667,-0.02111540533491126,0.05419399660256746,-0.008860336946693626,10922.25497441667,2.554875835750078,2.331190507615377,-1.40703246364488,-0.001056626439094543,0.02431921288371086,-0.002513895742595196,0.00821496918797493,0.01707198657095432,0.01350634638220072,XArbitraryCorrectedZVertical,0.7446225019440711,0.04146120830586279,-0.1158498241244385,-0.6560465807049731,0.1181278005242348,0.9866206645965576,0.1123634055256844,24.35437393188477,34.00149154663086,12.26926612854004,1,10919.70826254167,walking,0,2016-03-02 02:43:06.268,2016-03-02 02:41:14.235,40,40.52893,1,1,2016-03-02 02:43:03.720,10922.03851841667,0,-2.308105,97.42716,192.168.1.101,100.78.239.175,2,1,0.38,0
2016-03-02 02:43:08.893,72,234B9614-18C8-49ED-8B56-CAB6C4F40872,my_iOS_device_1,1456908187.995615,40.79923500776365,-96.6857873463041,369.9702,0.41,333.984375,4,14.01761755287903,-9999,1456908188.890823,26.73618698120117,38.96316528320312,12.09417724609375,285.3684692382812,282.0913391113281,25,10922.30694841667,0.1202392578125,1.003814697265625,0.1206512451171875,10922.29000441667,-0.02641190011086084,0.06375767439315101,-0.01000789306040877,10922.25497441667,2.554875835750078,2.331190507615377,-1.40703246364488,-0.001056626439094543,0.02431921288371086,-0.002513895742595196,0.00821496918797493,0.01707198657095432,0.01350634638220072,XArbitraryCorrectedZVertical,0.7446225019440711,0.04146120830586279,-0.1158498241244385,-0.6560465807049731,0.1181278005242348,0.9866206645965576,0.1123634055256844,24.35437393188477,34.00149154663086,12.26926612854004,1,10919.70826254167,walking,0,2016-03-02 02:43:06.268,2016-03-02 02:41:14.235,43,40.74703,1,1,2016-03-02 02:43:06.303,10922.03851841667,0,-2.308105,97.42716,192.168.1.101,100.78.239.175,2,1,0.38,0
2016-03-02 02:43:08.943,73,234B9614-18C8-49ED-8B56-CAB6C4F40872,my_iOS_device_1,1456908187.995615,40.79923500776365,-96.6857873463041,369.9702,0.41,333.984375,4,14.01761755287903,-9999,1456908188.890823,26.73618698120117,38.96316528320312,12.09417724609375,285.3684692382812,282.0913391113281,25,10922.33725241667,0.11968994140625,1.002944946289062,0.1304473876953125,10922.32500241667,-0.02641669380082299,0.05737727305353917,-0.01000469726710067,10922.29000441667,2.559218205555591,2.336630504276795,-1.406637982821771,-0.006357097998261452,0.03388385847210884,-0.003661921247839928,-0.002301558153703809,0.01136855501681566,0.01230571791529655,XArbitraryCorrectedZVertical,0.7449424861482106,0.04120376722927643,-0.1153359986128292,-0.6557900192297843,0.1177953332662582,0.9865562319755554,0.1132741197943687,24.33955001831055,33.97998809814453,12.35794830322266,1,10919.70826254167,walking,0,2016-03-02 02:43:06.268,2016-03-02 02:41:14.235,43,40.74703,1,1,2016-03-02 02:43:06.303,10922.03851841667,0,-2.308105,97.42716,192.168.1.101,100.78.239.175,2,1,0.38,0
2016-03-02 02:43:08.954,74,234B9614-18C8-49ED-8B56-CAB6C4F40872,my_iOS_device_1,1456908187.995615,40.79923500776365,-96.6857873463041,369.9702,0.41,333.984375,4,14.01761755287903,-9999,1456908188.948135,26.87464904785156,39.10234069824219,11.830078125,285.3558349609375,282.0787048339844,25,10922.36754541667,0.1226043701171875,0.996826171875,0.119842529296875,10922.36001541667,-0.02527819243481411,0.05949022506240804,-0.01531796995791776,10922.32500241667,2.562839685730225,2.341338482905849,-1.406269346410774,-0.006364190485328436,0.02750402502715588,-0.003658921224996448,0.004792771302163601,0.01670840568840504,0.01239936146885157,XArbitraryCorrectedZVertical,0.7452284745493059,0.0409254368893873,-0.1148509943587867,-0.6555676001993275,0.1175216808915138,0.9864959120750427,0.1140807420015335,24.32337379455566,33.97900009155273,12.39245510101318,1,10919.70826254167,walking,0,2016-03-02 02:43:06.268,2016-03-02 02:41:14.235,43,40.74703,1,1,2016-03-02 02:43:06.303,10922.03851841667,0,-2.308105,97.42716,192.168.1.101,100.78.239.175,2,1,0.38,0
2016-03-02 02:43:09.024,75,234B9614-18C8-49ED-8B56-CAB6C4F40872,my_iOS_device_1,1456908187.995615,40.79923500776365,-96.6857873463041,369.9702,0.41,333.984375,4,14.01761755287903,-9999,1456908188.984173,26.87464904785156,39.03273010253906,11.96209716796875,285.3496398925781,282.072509765625,25,10922.39783641667,0.12799072265625,0.999359130859375,0.1284027099609375,10922.39503941667,-0.03919613860767722,0.05630721492754533,-0.009123989894611471,10922.36001541667,2.567001874006521,2.346587572316984,-1.40576035928863,-0.005229288246482611,0.0296176839619875,-0.008971506729722023,0.005111074075102806,0.01265676692128181,0.00058344891294837,XArbitraryCorrectedZVertical,0.7455683261710467,0.04064109131424685,-0.1143707958619149,-0.6552827586326252,0.1172796711325645,0.9864124655723572,0.1150476559996605,24.31060600280762,33.97734832763672,12.42201137542725,1,10919.70826254167,walking,0,2016-03-02 02:43:06.268,2016-03-02 02:41:14.235,43,40.74703,1,1,2016-03-02 02:43:06.303,10922.03851841667,0,-2.308105,97.42716,192.168.1.101,100.78.239.175,2,1,0.38,0
2016-03-02 02:43:09.026,76,234B9614-18C8-49ED-8B56-CAB6C4F40872,my_iOS_device_1,1456908187.995615,40.79923500776365,-96.6857873463041,369.9702,0.41,333.984375,4,14.01761755287903,-9999,1456908188.984173,26.87464904785156,39.03273010253906,11.96209716796875,285.3496398925781,282.072509765625,25,10922.42812741667,0.1179046630859375,1.002105712890625,0.130523681640625,10922.39503941667,-0.03919613860767722,0.05630721492754533,-0.009123989894611471,10922.39503941667,2.568843831694149,2.349344890091801,-1.405138825375847,-0.01914882101118565,0.02643477916717529,-0.002775490982457995,0.01123313140124083,0.01124844793230295,0.008374913595616817,XArbitraryCorrectedZVertical,0.7458402847635187,0.0402843068422957,-0.1140824474097875,-0.6550455247073157,0.1173984631896019,0.9863101243972778,0.1158011108636856,24.29021644592285,33.96687698364258,12.49033641815186,1,10919.70826254167,walking,0,2016-03-02 02:43:06.268,2016-03-02 02:41:14.235,43,40.74703,1,1,2016-03-02 02:43:06.303,10922.03851841667,0,-2.308105,97.42716,192.168.1.101,100.78.239.175,2,1,0.38,0
2016-03-02 02:43:09.045,77,234B9614-18C8-49ED-8B56-CAB6C4F40872,my_iOS_device_1,1456908187.995615,40.79923500776365,-96.6857873463041,369.9702,0.41,333.984375,4,14.01761755287903,-9999,1456908189.03602,27.01311111450195,38.68475341796875,12.8861083984375,285.3668823242188,282.0897521972656,25,10922.45842141667,0.1198883056640625,1.0052490234375,0.12799072265625,10922.43005041667,-0.04024595670938646,0.05524008627875059,-0.01020443434885662,10922.43005041667,2.57506161741213,2.356419070285488,-1.404016610322715,-0.02020324021577835,0.02536844834685326,-0.003854585811495781,0.0005459181847982109,0.01598124206066132,0.01311221159994602,XArbitraryCorrectedZVertical,0.746393232071393,0.04003595810426884,-0.1137237395420815,-0.6544930681384167,0.1173587441444397,0.9861244559288025,0.1174114719033241,24.2836856842041,33.93849182128906,12.57986927032471,1,10919.70826254167,walking,0,2016-03-02 02:43:06.268,2016-03-02 02:41:14.235,43,40.74703,1,1,2016-03-02 02:43:06.303,10922.03851841667,0,-2.308105,97.42716,192.168.1.101,100.78.239.175,2,1,0.38,0
2016-03-02 02:43:09.103,78,234B9614-18C8-49ED-8B56-CAB6C4F40872,my_iOS_device_1,1456908188.995615,40.79923735469654,-96.6857921239889,369.9323,0.63,332.578125,4,14.46261574176919,-9999,1456908189.072941,27.08234405517578,38.54556274414062,12.8861083984375,285.3802490234375,282.1031188964844,25,10922.48870141667,0.12127685546875,0.99774169921875,0.1251373291015625,10922.46505741667,-0.03175207072868774,0.05418600711929722,-0.009014800289918221,10922.46505741667,2.580077961311496,2.362266102506949,-1.403394150377359,-0.01171222236007452,0.02431504428386688,-0.002665125299245119,0.002786699216812849,0.01922807656228542,0.009458420798182487,XArbitraryCorrectedZVertical,0.7467781319385229,0.03985690145688255,-0.1133169408499677,-0.6541353988136179,0.1171016097068787,0.9860209226608276,0.1185322999954224,24.26295852661133,33.92500686645508,12.65601921081543,1,10919.70826254167,walking,0,2016-03-02 02:43:06.268,2016-03-02 02:41:14.235,43,40.74703,1,1,2016-03-02 02:43:06.303,10922.03851841667,0,-2.308105,97.42716,192.168.1.101,100.78.239.175,2,1,0.38,0
2016-03-02 02:43:09.105,79,234B9614-18C8-49ED-8B56-CAB6C4F40872,my_iOS_device_1,1456908188.995615,40.79923735469654,-96.6857921239889,369.9323,0.63,332.578125,4,14.46261574176919,-9999,1456908189.072941,27.08234405517578,38.54556274414062,12.8861083984375,285.3802490234375,282.1031188964844,25,10922.51898741667,0.1161956787109375,1.003128051757812,0.1263885498046875,10922.50007841667,-0.02748036034020063,0.05737647410521215,-0.01002014360142313,10922.46505741667,2.580077961311496,2.362266102506949,-1.403394150377359,-0.01171222236007452,0.02431504428386688,-0.002665125299245119,0.002786699216812849,0.01922807656228542,0.009458420798182487,XArbitraryCorrectedZVertical,0.7467781319385229,0.03985690145688255,-0.1133169408499677,-0.6541353988136179,0.1171016097068787,0.9860209226608276,0.1185322999954224,24.26295852661133,33.92500686645508,12.65601921081543,1,10919.70826254167,walking,0,2016-03-02 02:43:06.268,2016-03-02 02:41:14.235,43,40.74703,1,1,2016-03-02 02:43:06.303,10922.03851841667,0,-2.308105,97.42716,192.168.1.101,100.78.239.175,2,1,0.38,0
2016-03-02 02:43:09.148,80,234B9614-18C8-49ED-8B56-CAB6C4F40872,my_iOS_device_1,1456908188.995615,40.79923735469654,-96.6857921239889,369.9323,0.63,332.578125,4,14.46261574176919,-9999,1456908189.135367,26.73618507385254,38.19755554199219,13.34814453125,285.4249267578125,282.1477966308594,25,10922.54927941667,0.1173248291015625,1.0006103515625,0.1239776611328125,10922.53508841667,-0.03172517280167794,0.05098994749509313,-0.01114426389754558,10922.53508841667,2.586276419861093,2.370163362132357,-1.40270219153448,-0.01168908644467592,0.02111992612481117,-0.004794238600879908,-0.003432563273236156,0.01694797724485397,0.006659682840108871,XArbitraryCorrectedZVertical,0.7472723544533486,0.03943695418454822,-0.1125424756212074,-0.6537300253892475,0.1166375204920769,0.9859054088592529,0.1199424937367439,24.24334526062012,33.91144561767578,12.7297306060791,1,10919.70826254167,walking,0,2016-03-02 02:43:06.268,2016-03-02 02:41:14.235,43,40.74703,1,1,2016-03-02 02:43:06.303,10922.03851841667,0,-2.308105,97.42716,192.168.1.101,100.78.239.175,2,1,0.38,0
2016-03-02 02:43:09.183,81,234B9614-18C8-49ED-8B56-CAB6C4F40872,my_iOS_device_1,1456908188.995615,40.79923735469654,-96.6857921239889,369.9323,0.63,332.578125,4,14.46261574176919,-9999,1456908189.135367,26.73618507385254,38.19755554199219,13.34814453125,285.4249267578125,282.1477966308594,25,10922.57958641667,0.12078857421875,0.9982452392578125,0.124053955078125,10922.57010541667,-0.03496251142277825,0.0478061384119034,-0.007992412747436803,10922.53508841667,2.586276419861093,2.370163362132357,-1.40270219153448,-0.01168908644467592,0.02111992612481117,-0.004794238600879908,-0.003432563273236156,0.01694797724485397,0.006659682840108871,XArbitraryCorrectedZVertical,0.7472723544533486,0.03943695418454822,-0.1125424756212074,-0.6537300253892475,0.1166375204920769,0.9859054088592529,0.1199424937367439,24.24334526062012,33.91144561767578,12.7297306060791,1,10919.70826254167,walking,0,2016-03-02 02:43:06.268,2016-03-02 02:41:14.235,43,40.74703,1,1,2016-03-02 02:43:06.303,10922.03851841667,0,-2.308105,97.42716,192.168.1.101,100.78.239.175,2,1,0.38,0
2016-03-02 02:43:09.196,82,234B9614-18C8-49ED-8B56-CAB6C4F40872,my_iOS_device_1,1456908188.995615,40.79923735469654,-96.6857921239889,369.9323,0.63,332.578125,4,14.46261574176919,-9999,1456908189.183397,26.52849006652832,38.33676147460938,13.01806640625,285.4607849121094,282.1836547851562,25,10922.60988341667,0.121490478515625,1.001922607421875,0.12890625,10922.57010541667,-0.03496251142277825,0.0478061384119034,-0.007992412747436803,10922.57010541667,2.588220435402151,2.37277213740487,-1.402342375757522,-0.01492705661803484,0.0179363489151001,-0.001642000395804644,0.006598083768039942,0.01330035459250212,-0.0004146508872509003,XArbitraryCorrectedZVertical,0.7474700890356315,0.0392317014115538,-0.1122797561643841,-0.6535614706797424,0.1165708601474762,0.985845148563385,0.1205013170838356,24.22765731811523,33.91315460205078,12.75501918792725,1,10919.70826254167,walking,0,2016-03-02 02:43:06.268,2016-03-02 02:41:14.235,43,40.74703,1,1,2016-03-02 02:43:06.303,10922.03851841667,0,-2.308105,97.42716,192.168.1.101,100.78.239.175,2,1,0.38,0
2016-03-02 02:43:09.264,83,234B9614-18C8-49ED-8B56-CAB6C4F40872,my_iOS_device_1,1456908188.995615,40.79923735469654,-96.6857921239889,369.9323,0.63,332.578125,4,14.46261574176919,-9999,1456908189.24221,26.90926551818848,38.37158203125,13.24920654296875,285.4981689453125,282.2210388183594,25,10922.64017041667,0.1131134033203125,1.003189086914062,0.127105712890625,10922.64012741667,-0.03805497408057826,0.04246623411018552,-0.01549480385429902,10922.60511541667,2.592290252406086,2.377360250270255,-1.401652293702939,-0.02125669829547405,0.01153970789164305,-0.005992964841425419,0.004697801545262337,0.0140113802626729,0.008219493553042412,XArbitraryCorrectedZVertical,0.7478194571974288,0.03910312609549042,-0.1120408399149162,-0.6532104218072804,0.1164875030517578,0.9857292175292969,0.1215259879827499,24.21337127685547,33.89859008789062,12.82068824768066,1,10919.70826254167,walking,0,2016-03-02 02:43:06.268,2016-03-02 02:41:14.235,43,40.74703,1,1,2016-03-02 02:43:06.303,10922.03851841667,0,-2.308105,97.42716,192.168.1.101,100.78.239.175,2,1,0.38,0
2016-03-02 02:43:09.265,84,234B9614-18C8-49ED-8B56-CAB6C4F40872,my_iOS_device_1,1456908188.995615,40.79923735469654,-96.6857921239889,369.9323,0.63,332.578125,4,14.46261574176919,-9999,1456908189.24221,26.90926551818848,38.37158203125,13.24920654296875,285.4981689453125,282.2210388183594,25,10922.67047341667,0.1128082275390625,0.9981689453125,0.1297607421875,10922.64012741667,-0.03805497408057826,0.04246623411018552,-0.01549480385429902,10922.64012741667,2.59716529507797,2.382560540330039,-1.401161504523352,-0.01802272722125053,0.01259712781757116,-0.009143573231995106,0.0002987006446346641,0.01697802916169167,0.006821893155574799,XArbitraryCorrectedZVertical,0.7481377206431277,0.03912152528811425,-0.111791453997757,-0.6528875309140822,0.1161868944764137,0.9856464862823486,0.1224810853600502,24.21337127685547,33.89859008789062,12.82068824768066,1,10919.70826254167,walking,0,2016-03-02 02:43:06.268,2016-03-02 02:41:14.235,43,40.74703,1,1,2016-03-02 02:43:06.303,10922.03851841667,0,-2.308105,97.42716,192.168.1.101,100.78.239.175,2,1,0.38,0
2016-03-02 02:43:09.287,85,234B9614-18C8-49ED-8B56-CAB6C4F40872,my_iOS_device_1,1456908188.995615,40.79923735469654,-96.6857921239889,369.9323,0.63,332.578125,4,14.46261574176919,-9999,1456908189.24221,26.90926551818848,38.37158203125,13.24920654296875,285.4981689453125,282.2210388183594,25,10922.70076941667,0.1158294677734375,1.001632690429688,0.1304473876953125,10922.67514241667,-0.04128911690837049,0.04353602592007035,-0.01234508323306231,10922.64012741667,2.59716529507797,2.382560540330039,-1.401161504523352,-0.01802272722125053,0.01259712781757116,-0.009143573231995106,0.0002987006446346641,0.01697802916169167,0.006821893155574799,XArbitraryCorrectedZVertical,0.7481377206431277,0.03912152528811425,-0.111791453997757,-0.6528875309140822,0.1161868944764137,0.9856464862823486,0.1224810853600502,24.21337127685547,33.89859008789062,12.82068824768066,1,10919.70826254167,walking,0,2016-03-02 02:43:06.268,2016-03-02 02:41:14.235,43,40.74703,1,1,2016-03-02 02:43:06.303,10922.03851841667,0,-2.308105,97.42716,192.168.1.101,100.78.239.175,2,1,0.38,0
2016-03-02 02:43:09.320,86,234B9614-18C8-49ED-8B56-CAB6C4F40872,my_iOS_device_1,1456908188.995615,40.79923735469654,-96.6857921239889,369.9323,0.63,332.578125,4,14.46261574176919,-9999,1456908189.300564,27.04772758483887,38.23237609863281,12.98516845703125,285.5172424316406,282.2401123046875,25,10922.73106641667,0.1184539794921875,1.00177001953125,0.13372802734375,10922.71015341667,-0.03704590234354724,0.04779575208365209,-0.01121989767250383,10922.67514241667,2.603115417277712,2.388908688078082,-1.400810378821467,-0.02125857770442963,0.01366768125444651,-0.005995250307023525,-0.002835380844771862,0.01258180104196072,0.006291972473263741,XArbitraryCorrectedZVertical,0.7484635841286585,0.03920010337023996,-0.1114318002301213,-0.6525707387145876,0.1156436055898666,0.9855871200561523,0.1234687715768814,24.18687438964844,33.89019775390625,12.89269733428955,1,10919.70826254167,walking,0,2016-03-02 02:43:06.268,2016-03-02 02:41:14.235,43,40.74703,1,1,2016-03-02 02:43:06.303,10922.03851841667,0,-2.308105,97.42716,192.168.1.101,100.78.239.175,2,1,0.38,0
2016-03-02 02:43:09.348,87,234B9614-18C8-49ED-8B56-CAB6C4F40872,my_iOS_device_1,1456908188.995615,40.79923735469654,-96.6857921239889,369.9323,0.63,332.578125,4,14.46261574176919,-9999,1456908189.300564,27.04772758483887,38.23237609863281,12.98516845703125,285.5172424316406,282.2401123046875,25,10922.76136141667,0.1167144775390625,1.002120971679688,0.128570556640625,10922.74516441667,-0.03278724144440153,0.05311594899330338,-0.01116077549630407,10922.71015341667,2.608284157269674,2.394606712779246,-1.400428769666212,-0.01701678894460201,0.01792801171541214,-0.004871309269219637,0.0006357295205816627,0.01611017435789108,0.006045728456228971,XArbitraryCorrectedZVertical,0.7487754278703325,0.03919423707070604,-0.1110644428252971,-0.6522759078319048,0.1151937395334244,0.9855225086212158,0.1244016587734222,24.17490386962891,33.88846969604492,12.91966247558594,1,10919.70826254167,walking,0,2016-03-02 02:43:06.268,2016-03-02 02:41:14.235,43,40.74703,1,1,2016-03-02 02:43:06.303,10922.03851841667,0,-2.308105,97.42716,192.168.1.101,100.78.239.175,2,1,0.38,0
2016-03-02 02:43:09.388,88,234B9614-18C8-49ED-8B56-CAB6C4F40872,my_iOS_device_1,1456908188.995615,40.79923735469654,-96.6857921239889,369.9323,0.63,332.578125,4,14.46261574176919,-9999,1456908189.359705,27.08234596252441,38.54556274414062,12.8861083984375,285.5273132324219,282.2501831054688,25,10922.79162841667,0.114288330078125,0.9962615966796875,0.1240692138671875,10922.78016041667,-0.03074619478496481,0.05526192419968923,-0.004737763579250965,10922.78016041667,2.615543925232787,2.403495370582198,-1.399625273566303,-0.01069933827966452,0.02538806758821011,0.001602698932401836,-0.000922994629945606,0.01536171138286591,0.002243732335045934,XArbitraryCorrectedZVertical,0.7493292265737116,0.03884462725306838,-0.110267796215329,-0.6517958409301263,0.1146162301301956,0.9853859543800354,0.1260063946247101,24.14381980895996,33.88040161132812,12.99870491027832,1,10919.70826254167,walking,0,2016-03-02 02:43:06.268,2016-03-02 02:41:14.235,43,40.74703,1,1,2016-03-02 02:43:06.303,10922.03851841667,0,-2.308105,97.42716,192.168.1.101,100.78.239.175,2,1,0.38,0
2016-03-02 02:43:09.424,89,234B9614-18C8-49ED-8B56-CAB6C4F40872,my_iOS_device_1,1456908188.995615,40.79923735469654,-96.6857921239889,369.9323,0.63,332.578125,4,14.46261574176919,-9999,1456908189.419486,26.84003448486328,38.51075744628906,12.7210693359375,285.5337829589844,282.2566528320312,25,10922.82194641667,0.119293212890625,1.00146484375,0.1253662109375,10922.78016041667,-0.03074619478496481,0.05526192419968923,-0.004737763579250965,10922.78016041667,2.615543925232787,2.403495370582198,-1.399625273566303,-0.01069933827966452,0.02538806758821011,0.001602698932401836,-0.000922994629945606,0.01536171138286591,0.002243732335045934,XArbitraryCorrectedZVertical,0.7493292265737116,0.03884462725306838,-0.110267796215329,-0.6517958409301263,0.1146162301301956,0.9853859543800354,0.1260063946247101,24.14381980895996,33.88040161132812,12.99870491027832,1,10919.70826254167,walking,0,2016-03-02 02:43:06.268,2016-03-02 02:41:14.235,43,40.74703,1,1,2016-03-02 02:43:06.303,10922.03851841667,0,-2.308105,97.42716,192.168.1.101,100.78.239.175,2,1,0.38,0
2016-03-02 02:43:09.439,90,234B9614-18C8-49ED-8B56-CAB6C4F40872,my_iOS_device_1,1456908188.995615,40.79923735469654,-96.6857921239889,369.9323,0.63,332.578125,4,14.46261574176919,-9999,1456908189.419486,26.84003448486328,38.51075744628906,12.7210693359375,285.5337829589844,282.2566528320312,25,10922.85222241667,0.12249755859375,1.00421142578125,0.1237945556640625,10922.81518041667,-0.03925313025500492,0.05844573328287896,-0.004862932150484689,10922.81518041667,2.617347296216165,2.406267978820054,-1.399378741485604,-0.01920526288449764,0.02857203036546707,0.00147708470467478,0.00364312413148582,0.01490019448101521,-0.003151795826852322,XArbitraryCorrectedZVertical,0.7495096234033237,0.03856485059770248,-0.1098669731772011,-0.6516727130462401,0.114429384469986,0.9853439331054688,0.1265038400888443,24.11007308959961,33.87754058837891,13.06861400604248,1,10919.70826254167,walking,0,2016-03-02 02:43:06.268,2016-03-02 02:41:14.235,43,40.74703,1,1,2016-03-02 02:43:06.303,10922.03851841667,0,-2.308105,97.42716,192.168.1.101,100.78.239.175,2,1,0.38,0
2016-03-02 02:43:09.469,91,234B9614-18C8-49ED-8B56-CAB6C4F40872,my_iOS_device_1,1456908188.995615,40.79923735469654,-96.6857921239889,369.9323,0.63,332.578125,4,14.46261574176919,-9999,1456908189.419486,26.84003448486328,38.51075744628906,12.7210693359375,285.5337829589844,282.2566528320312,25,10922.88250841667,0.1241607666015625,0.99993896484375,0.1270599365234375,10922.85019141667,-0.04246197305244139,0.05419266502202242,-0.003841609872439301,10922.85019141667,2.619069764791122,2.408865522564401,-1.398725391313653,-0.02241378836333752,0.02431890554726124,0.002499338006600738,0.005021615419536829,0.0167666133493185,-0.0006770066102035344,XArbitraryCorrectedZVertical,0.7497855020382227,0.03822683186682775,-0.1095877509668609,-0.651422240253373,0.1145309954881668,0.9852322936058044,0.1272791773080826,24.10182189941406,33.86429214477539,13.11807250976562,1,10919.70826254167,walking,0,2016-03-02 02:43:06.268,2016-03-02 02:41:14.235,43,40.74703,1,1,2016-03-02 02:43:06.303,10922.03851841667,0,-2.308105,97.42716,192.168.1.101,100.78.239.175,2,1,0.38,0
2016-03-02 02:43:09.504,92,234B9614-18C8-49ED-8B56-CAB6C4F40872,my_iOS_device_1,1456908188.995615,40.79923735469654,-96.6857921239889,369.9323,0.63,332.578125,4,14.46261574176919,-9999,1456908189.476648,27.25542449951172,38.58035278320312,12.7210693359375,285.5328674316406,282.2557373046875,25,10922.91282341667,0.119293212890625,0.9975738525390625,0.1251678466796875,10922.88521841667,-0.04456240820418689,0.05099500750116428,-0.006001966148711579,10922.85019141667,2.619069764791122,2.408865522564401,-1.398725391313653,-0.02241378836333752,0.02431890554726124,0.002499338006600738,0.005021615419536829,0.0167666133493185,-0.0006770066102035344,XArbitraryCorrectedZVertical,0.7497855020382227,0.03822683186682775,-0.1095877509668609,-0.651422240253373,0.1145309954881668,0.9852322936058044,0.1272791773080826,24.10182189941406,33.86429214477539,13.11807250976562,1,10919.70826254167,walking,0,2016-03-02 02:43:06.268,2016-03-02 02:41:14.235,43,40.74703,1,1,2016-03-02 02:43:06.303,10922.03851841667,0,-2.308105,97.42716,192.168.1.101,100.78.239.175,2,1,0.38,0
2016-03-02 02:43:09.537,93,234B9614-18C8-49ED-8B56-CAB6C4F40872,my_iOS_device_1,1456908188.995615,40.79923735469654,-96.6857921239889,369.9323,0.63,332.578125,4,14.46261574176919,-9999,1456908189.476648,27.25542449951172,38.58035278320312,12.7210693359375,285.5328674316406,282.2557373046875,25,10922.94308741667,0.1241607666015625,0.9973297119140625,0.12713623046875,10922.92022941667,-0.0445429671282293,0.05737247936357703,-0.007070692694160378,10922.92022941667,2.6208311684683,2.411980279815384,-1.397363405749259,-0.02447818219661713,0.02749112620949745,-0.0007304921746253967,0.004264854826033115,0.01257568132132292,-0.003467608010396361,XArbitraryCorrectedZVertical,0.7502698820163382,0.0375876502797655,-0.1092700738507311,-0.6509549321160991,0.1150283589959145,0.9849981665611267,0.1286354511976242,24.10857772827148,33.83380889892578,13.18415832519531,1,10919.70826254167,walking,0,2016-03-02 02:43:06.268,2016-03-02 02:41:14.235,43,40.74703,1,1,2016-03-02 02:43:06.303,10922.03851841667,0,-2.308105,97.42716,192.168.1.101,100.78.239.175,2,1,0.38,0
2016-03-02 02:43:09.583,94,234B9614-18C8-49ED-8B56-CAB6C4F40872,my_iOS_device_1,1456908188.995615,40.79923735469654,-96.6857921239889,369.9323,0.63,332.578125,4,14.46261574176919,-9999,1456908189.537845,27.2900390625,38.26712036132812,12.82012939453125,285.5361328125,282.2590026855469,25,10922.97340841667,0.123992919921875,1.0054931640625,0.1304779052734375,10922.95524141667,-0.04883598280543704,0.06482187356474667,-0.003939614200554217,10922.92022941667,2.6208311684683,2.411980279815384,-1.397363405749259,-0.02447818219661713,0.02749112620949745,-0.0007304921746253967,0.004264854826033115,0.01257568132132292,-0.003467608010396361,XArbitraryCorrectedZVertical,0.7502698820163382,0.0375876502797655,-0.1092700738507311,-0.6509549321160991,0.1150283589959145,0.9849981665611267,0.1286354511976242,24.10857772827148,33.83380889892578,13.18415832519531,1,10919.70826254167,walking,0,2016-03-02 02:43:06.268,2016-03-02 02:41:14.235,43,40.74703,1,1,2016-03-02 02:43:06.303,10922.03851841667,0,-2.308105,97.42716,192.168.1.101,100.78.239.175,2,1,0.38,0
2016-03-02 02:43:09.590,95,234B9614-18C8-49ED-8B56-CAB6C4F40872,my_iOS_device_1,1456908188.995615,40.79923735469654,-96.6857921239889,369.9323,0.63,332.578125,4,14.46261574176919,-9999,1456908189.537845,27.2900390625,38.26712036132812,12.82012939453125,285.5361328125,282.2590026855469,25,10923.00370441667,0.1314697265625,1.001739501953125,0.12908935546875,10922.95524141667,-0.04883598280543704,0.06482187356474667,-0.003939614200554217,10922.95524141667,2.621876245286042,2.414082929664817,-1.396626372617788,-0.02876998484134674,0.03494026511907578,0.002402321202680469,0.004358008038252592,0.01134510338306427,0.0001889720151666552,XArbitraryCorrectedZVertical,0.75055319997141,0.03714142103555375,-0.1089706427761484,-0.650704086255091,0.1152403801679611,0.9848707318305969,0.1294191777706146,24.10665130615234,33.82780456542969,13.20306873321533,1,10919.70826254167,walking,0,2016-03-02 02:43:06.268,2016-03-02 02:41:14.235,43,40.74703,1,1,2016-03-02 02:43:06.303,10922.03851841667,0,-2.308105,97.42716,192.168.1.101,100.78.239.175,2,1,0.38,0
2016-03-02 02:43:09.621,96,234B9614-18C8-49ED-8B56-CAB6C4F40872,my_iOS_device_1,1456908188.995615,40.79923735469654,-96.6857921239889,369.9323,0.63,332.578125,4,14.46261574176919,-9999,1456908189.5962,27.15157699584961,38.82391357421875,13.01806640625,285.5380554199219,282.2609252929688,25,10923.03399841667,0.1228179931640625,1.000167846679688,0.1340179443359375,10923.02526841667,-0.04446467019218098,0.04459409982115883,-0.01345748562038841,10922.99025241667,2.624427606463106,2.417466427783967,-1.395683664685996,-0.02869263105094433,0.02003485150635242,-0.003981573041528463,0.01344361528754234,0.02025218866765499,-0.001643303548917174,XArbitraryCorrectedZVertical,0.7509310840385686,0.03680211406292502,-0.1087209131751104,-0.6503290509146219,0.1154168620705605,0.9847069382667542,0.13050377368927,24.10254287719727,33.80883026123047,13.25905895233154,1,10919.70826254167,walking,0,2016-03-02 02:43:06.268,2016-03-02 02:41:14.235,43,40.74703,1,1,2016-03-02 02:43:06.303,10922.03851841667,0,-2.308105,97.42716,192.168.1.101,100.78.239.175,2,1,0.38,0
2016-03-02 02:43:09.663,97,234B9614-18C8-49ED-8B56-CAB6C4F40872,my_iOS_device_1,1456908188.995615,40.79923735469654,-96.6857921239889,369.9323,0.63,332.578125,4,14.46261574176919,-9999,1456908189.653596,27.11696243286133,38.85873413085938,13.18310546875,285.5497741699219,282.2726440429688,25,10923.06429441667,0.1200408935546875,0.9979400634765625,0.126739501953125,10923.06027741667,-0.03379817739419561,0.06480376406933414,-0.01437867304144681,10923.02526841667,2.624629173478518,2.417938062686998,-1.394578064986629,-0.02439819276332855,0.01471172366291285,-0.007108538411557674,0.01406613364815712,0.01466232631355524,0.00874748732894659,XArbitraryCorrectedZVertical,0.7512357377643704,0.03649455829531068,-0.108832175377835,-0.6499758234911229,0.1160760745406151,0.9845137000083923,0.1313739717006683,24.1180305480957,33.76795959472656,13.33481788635254,1,10919.70826254167,walking,0,2016-03-02 02:43:06.268,2016-03-02 02:41:14.235,43,40.74703,1,1,2016-03-02 02:43:06.303,10922.03851841667,0,-2.308105,97.42716,192.168.1.101,100.78.239.175,2,1,0.38,0
2016-03-02 02:43:09.681,98,234B9614-18C8-49ED-8B56-CAB6C4F40872,my_iOS_device_1,1456908188.995615,40.79923735469654,-96.6857921239889,369.9323,0.63,332.578125,4,14.46261574176919,-9999,1456908189.653596,27.11696243286133,38.85873413085938,13.18310546875,285.5497741699219,282.2726440429688,25,10923.09457641667,0.1226043701171875,0.996856689453125,0.1313323974609375,10923.06027741667,-0.03379817739419561,0.06480376406933414,-0.01437867304144681,10923.06027741667,2.627217314629168,2.421479464894611,-1.394292185689664,-0.01370576303452253,0.03490328416228294,-0.008031278848648071,0.003802681341767311,0.01150813791900873,-0.005469912197440863,XArbitraryCorrectedZVertical,0.7514541517190289,0.03625677168755845,-0.1084002572141279,-0.6498088092715624,0.1157957091927528,0.9844635128974915,0.1319957971572876,24.11832809448242,33.75658416748047,13.36305046081543,1,10919.70826254167,walking,0,2016-03-02 02:43:06.268,2016-03-02 02:41:14.235,43,40.74703,1,1,2016-03-02 02:43:06.303,10922.03851841667,0,-2.308105,97.42716,192.168.1.101,100.78.239.175,2,1,0.38,0
2016-03-02 02:43:09.711,99,234B9614-18C8-49ED-8B56-CAB6C4F40872,my_iOS_device_1,1456908188.995615,40.79923735469654,-96.6857921239889,369.9323,0.63,332.578125,4,14.46261574176919,-9999,1456908189.653596,27.11696243286133,38.85873413085938,13.18310546875,285.5497741699219,282.2726440429688,25,10923.12487841667,0.12335205078125,0.9978179931640625,0.1328582763671875,10923.09529441667,-0.0507907430455552,0.06053152104862902,-0.01675474536601551,10923.09529441667,2.629267978013057,2.424652502607549,-1.39395362684826,-0.03069682978093624,0.03063075616955757,-0.01040585990995169,0.007009075023233891,0.01245265081524849,-0.001281392527744174,XArbitraryCorrectedZVertical,0.7516755776831922,0.03592660448204947,-0.1079418739151337,-0.6496473326818966,0.1155952960252762,0.9844040274620056,0.13261379301548,24.09538078308105,33.75645446777344,13.40471935272217,1,10919.70826254167,walking,0,2016-03-02 02:43:06.268,2016-03-02 02:41:14.235,43,40.74703,1,1,2016-03-02 02:43:06.303,10922.03851841667,0,-2.308105,97.42716,192.168.1.101,100.78.239.175,2,1,0.38,0
2016-03-02 02:43:09.743,100,234B9614-18C8-49ED-8B56-CAB6C4F40872,my_iOS_device_1,1456908188.995615,40.79923735469654,-96.6857921239889,369.9323,0.63,332.578125,4,14.46261574176919,-9999,1456908189.712475,26.90926551818848,38.9283447265625,13.381103515625,285.5632629394531,282.2861328125,25,10923.15517241667,0.1280517578125,1.001739501953125,0.13470458984375,10923.13030541667,-0.05292686455590775,0.04883252069601993,-0.01677977908026226,10923.13030541667,2.633229148124225,2.429367926251578,-1.393299778929109,-0.0328323096036911,0.01893157698214054,-0.01042935345321894,0.007962754927575588,0.01352919172495604,-0.00078627496259287,XArbitraryCorrectedZVertical,0.752026738591149,0.03574996663611557,-0.1075858631350689,-0.649309638295122,0.1153892949223518,0.9842888116836548,0.1336445510387421,24.08558082580566,33.75143432617188,13.43492698669434,1,10919.70826254167,walking,0,2016-03-02 02:43:06.268,2016-03-02 02:41:14.235,43,40.74703,1,1,2016-03-02 02:43:06.303,10922.03851841667,0,-2.308105,97.42716,192.168.1.101,100.78.239.175,2,1,0.38,0
2016-03-02 02:43:09.772,101,234B9614-18C8-49ED-8B56-CAB6C4F40872,my_iOS_device_1,1456908188.995615,40.79923735469654,-96.6857921239889,369.9323,0.63,332.578125,4,14.46261574176919,-9999,1456908189.712475,26.90926551818848,38.9283447265625,13.381103515625,285.5632629394531,282.2861328125,25,10923.18544941667,0.123809814453125,0.996826171875,0.1336669921875,10923.16531641667,-0.05073907772040766,0.03180506763438031,-0.0220680180568326,10923.16531641667,2.635384972299716,2.431678907879732,-1.392188485612084,-0.03064382635056973,0.001903568627312779,-0.01571302115917206,0.01552414614707232,0.0173576083034277,-0.001836304320022464,XArbitraryCorrectedZVertical,0.7523988359795923,0.0355832848327292,-0.1076367269912289,-0.6488791539721916,0.115792989730835,0.9840919971466064,0.1347403526306152,24.07628631591797,33.73517990112305,13.49229621887207,1,10919.70826254167,walking,0,2016-03-02 02:43:06.268,2016-03-02 02:41:14.235,43,40.74703,1,1,2016-03-02 02:43:06.303,10922.03851841667,0,-2.308105,97.42716,192.168.1.101,100.78.239.175,2,1,0.38,0
2016-03-02 02:43:09.824,102,234B9614-18C8-49ED-8B56-CAB6C4F40872,my_iOS_device_1,1456908188.995615,40.79923735469654,-96.6857921239889,369.9323,0.63,332.578125,4,14.46261574176919,-9999,1456908189.772816,27.25542068481445,38.64996337890625,13.24920654296875,285.5759887695312,282.2988586425781,25,10923.21574841667,0.11273193359375,1.000335693359375,0.13580322265625,10923.20033241667,-0.06229453369026148,0.0296401839842549,-0.03289216999135065,10923.16531641667,2.635384972299716,2.431678907879732,-1.392188485612084,-0.03064382635056973,0.001903568627312779,-0.01571302115917206,0.01552414614707232,0.0173576083034277,-0.001836304320022464,XArbitraryCorrectedZVertical,0.7523988359795923,0.0355832848327292,-0.1076367269912289,-0.6488791539721916,0.115792989730835,0.9840919971466064,0.1347403526306152,24.07628631591797,33.73517990112305,13.49229621887207,1,10919.70826254167,walking,0,2016-03-02 02:43:06.268,2016-03-02 02:41:14.235,43,40.74703,1,1,2016-03-02 02:43:06.303,10922.03851841667,0,-2.308105,97.42716,192.168.1.101,100.78.239.175,2,1,0.38,0
2016-03-02 02:43:09.833,103,234B9614-18C8-49ED-8B56-CAB6C4F40872,my_iOS_device_1,1456908188.995615,40.79923735469654,-96.6857921239889,369.9323,0.63,332.578125,4,14.46261574176919,-9999,1456908189.829857,27.01311111450195,38.75434875488281,13.54620361328125,285.5899658203125,282.3128356933594,25,10923.24603541667,0.1070556640625,0.99456787109375,0.133056640625,10923.23534441667,-0.05811310446272806,0.02965802716355843,-0.0275027308933573,10923.20033241667,2.641543321536192,2.437608705386377,-1.391601213385071,-0.04216001182794571,-0.0003194957971572876,-0.0265346709638834,0.006292295642197132,0.0148070827126503,0.001082503702491522,XArbitraryCorrectedZVertical,0.7527594429707287,0.0358578457461162,-0.1075185213514133,-0.6484652677539761,0.1153660267591476,0.9839874505996704,0.1358651220798492,24.07173347473145,33.71223831176758,13.5576000213623,1,10919.70826254167,walking,0,2016-03-02 02:43:06.268,2016-03-02 02:41:14.235,43,40.74703,1,1,2016-03-02 02:43:06.303,10922.03851841667,0,-2.308105,97.42716,192.168.1.101,100.78.239.175,2,1,0.38,0
2016-03-02 02:43:09.862,104,234B9614-18C8-49ED-8B56-CAB6C4F40872,my_iOS_device_1,1456908188.995615,40.79923735469654,-96.6857921239889,369.9323,0.63,332.578125,4,14.46261574176919,-9999,1456908189.829857,27.01311111450195,38.75434875488281,13.54620361328125,285.5899658203125,282.3128356933594,25,10923.27633941667,0.11572265625,1.003494262695312,0.1333465576171875,10923.27034541667,-0.06654600405446397,0.03389058908402136,-0.03295608585751256,10923.23534441667,2.650271318454242,2.446237948260849,-1.391333028669355,-0.03797777742147446,-0.0003015248221345246,-0.0211462527513504,-0.003488033544272184,0.01467181369662285,-0.004550871904939413,XArbitraryCorrectedZVertical,0.753134741776778,0.03629268100128177,-0.1071511449035901,-0.6480659952353615,0.1143583953380585,0.9839396476745605,0.1370581984519958,24.05581665039062,33.71282196044922,13.58437347412109,1,10919.70826254167,walking,0,2016-03-02 02:43:06.268,2016-03-02 02:41:14.235,43,40.74703,1,1,2016-03-02 02:43:06.303,10922.03851841667,0,-2.308105,97.42716,192.168.1.101,100.78.239.175,2,1,0.38,0
2016-03-02 02:43:09.904,105,234B9614-18C8-49ED-8B56-CAB6C4F40872,my_iOS_device_1,1456908188.995615,40.79923735469654,-96.6857921239889,369.9323,0.63,332.578125,4,14.46261574176919,-9999,1456908189.888632,26.63233757019043,38.99794006347656,13.315185546875,285.6026916503906,282.3255615234375,25,10923.30664441667,0.1156463623046875,1.004898071289062,0.13690185546875,10923.27034541667,-0.06654600405446397,0.03389058908402136,-0.03295608585751256,10923.27034541667,2.658478699093754,2.454429028887738,-1.391370994841676,-0.04640791565179825,0.003931024111807346,-0.02660189568996429,-0.002337857848033309,0.01703014969825745,-0.01021484564989805,XArbitraryCorrectedZVertical,0.7534129320852455,0.03673782485187919,-0.1067176658345079,-0.6477890287668389,0.113208219408989,0.9839464426040649,0.1379614323377609,24.0350456237793,33.71905136108398,13.60567092895508,1,10919.70826254167,walking,0,2016-03-02 02:43:06.268,2016-03-02 02:41:14.235,43,40.74703,1,1,2016-03-02 02:43:06.303,10922.03851841667,0,-2.308105,97.42716,192.168.1.101,100.78.239.175,2,1,0.38,0
2016-03-02 02:43:09.923,106,234B9614-18C8-49ED-8B56-CAB6C4F40872,my_iOS_device_1,1456908188.995615,40.79923735469654,-96.6857921239889,369.9323,0.63,332.578125,4,14.46261574176919,-9999,1456908189.888632,26.63233757019043,38.99794006347656,13.315185546875,285.6026916503906,282.3255615234375,25,10923.33694041667,0.10430908203125,0.99853515625,0.142578125,10923.30535941667,-0.05058434806107406,0.02326564159904123,-0.03378459527263621,10923.30535941667,2.667014115228822,2.462728519225811,-1.390969895307011,-0.03044506534934044,-0.006694006733596325,-0.02743019536137581,0.004300540313124657,0.02128271944820881,-0.0002721095515880734,XArbitraryCorrectedZVertical,0.7538028585234989,0.03718793446669598,-0.1064302512188075,-0.647356864208134,0.1123071238398552,0.9838747382164001,0.1392033845186234,23.98972511291504,33.73442077636719,13.64748096466064,1,10919.70826254167,walking,0,2016-03-02 02:43:06.268,2016-03-02 02:41:14.235,43,40.74703,1,1,2016-03-02 02:43:06.303,10922.03851841667,0,-2.308105,97.42716,192.168.1.101,100.78.239.175,2,1,0.38,0
2016-03-02 02:43:09.954,107,234B9614-18C8-49ED-8B56-CAB6C4F40872,my_iOS_device_1,1456908188.995615,40.79923735469654,-96.6857921239889,369.9323,0.63,332.578125,4,14.46261574176919,-9999,1456908189.947471,26.49387741088867,38.85873413085938,13.9091796875,285.6406555175781,282.363525390625,25,10923.36723341667,0.103759765625,0.997100830078125,0.1448822021484375,10923.34035741667,-0.04941735087140134,0.02430933443024329,-0.04122839683551668,10923.34035741667,2.675692140149596,2.471025741405361,-1.391260381825282,-0.02927728928625584,-0.005650130100548267,-0.03487501293420792,-0.006661579012870789,0.01460849028080702,0.00267162942327559,XArbitraryCorrectedZVertical,0.7540040562924191,0.03783029006324268,-0.1060565583466771,-0.6471466284235377,0.1109706610441208,0.9839266538619995,0.1399064958095551,23.95564651489258,33.74425888061523,13.68297100067139,1,10919.70826254167,walking,0,2016-03-02 02:43:06.268,2016-03-02 02:41:14.235,43,40.74703,1,1,2016-03-02 02:43:06.303,10923.35291041667,0,-2.282654,97.42686,192.168.1.101,100.78.239.175,2,1,0.38,0
2016-03-02 02:43:09.984,108,234B9614-18C8-49ED-8B56-CAB6C4F40872,my_iOS_device_1,1456908188.995615,40.79923735469654,-96.6857921239889,369.9323,0.63,332.578125,4,14.46261574176919,-9999,1456908189.947471,26.49387741088867,38.85873413085938,13.9091796875,285.6406555175781,282.363525390625,25,10923.39752141667,0.0950927734375,1.003616333007812,0.1439208984375,10923.37538741667,-0.04737630421196461,0.02645530963662914,-0.03480538491846358,10923.37538741667,2.685559389079945,2.48057217803521,-1.391234378617018,-0.02717985957860947,-0.003589226398617029,-0.02844815514981747,-0.00588595774024725,0.01317880768328905,0.003902527270838618,XArbitraryCorrectedZVertical,0.7543280607980057,0.0384579521136785,-0.1056534789693525,-0.6467978857368036,0.1096457242965698,0.983922004699707,0.140979677438736,23.93142700195312,33.75711822509766,13.69363594055176,1,10919.70826254167,walking,0,2016-03-02 02:43:06.268,2016-03-02 02:41:14.235,43,40.74703,1,1,2016-03-02 02:43:06.303,10923.35291041667,0,-2.282654,97.42686,192.168.1.101,100.78.239.175,2,1,0.38,0
2016-03-02 02:43:10.014,109,234B9614-18C8-49ED-8B56-CAB6C4F40872,my_iOS_device_1,1456908188.995615,40.79923735469654,-96.6857921239889,369.9323,0.63,332.578125,4,14.46261574176919,-9999,1456908190.006115,26.32079696655273,38.8935546875,14.00823974609375,285.6780090332031,282.40087890625,25,10923.42781741667,0.1001739501953125,1.004592895507812,0.1483001708984375,10923.41040741667,-0.05255641884827773,0.03493215138635135,-0.04447665441708634,10923.37538741667,2.685559389079945,2.48057217803521,-1.391234378617018,-0.02717985957860947,-0.003589226398617029,-0.02844815514981747,-0.00588595774024725,0.01317880768328905,0.003902527270838618,XArbitraryCorrectedZVertical,0.7543280607980057,0.0384579521136785,-0.1056534789693525,-0.6467978857368036,0.1096457242965698,0.983922004699707,0.140979677438736,23.93142700195312,33.75711822509766,13.69363594055176,1,10919.70826254167,walking,0,2016-03-02 02:43:06.268,2016-03-02 02:41:14.235,43,40.74703,1,1,2016-03-02 02:43:06.303,10923.35291041667,0,-2.282654,97.42686,192.168.1.101,100.78.239.175,2,1,0.38,0
2016-03-02 02:43:10.067,110,234B9614-18C8-49ED-8B56-CAB6C4F40872,my_iOS_device_1,1456908188.995615,40.79923735469654,-96.6857921239889,369.9323,0.63,332.578125,4,14.46261574176919,-9999,1456908190.006115,26.32079696655273,38.8935546875,14.00823974609375,285.6780090332031,282.40087890625,25,10923.45811341667,0.102569580078125,0.994293212890625,0.1466217041015625,10923.44541941667,-0.0514528048925489,0.02960716078673791,-0.04765513717809591,10923.41040741667,2.698304816500043,2.493277411197278,-1.391783827250259,-0.03235997259616852,0.004888435360044241,-0.03812461346387863,-0.01674474403262138,0.02376197837293148,0.003974154125899076,XArbitraryCorrectedZVertical,0.7546017209241455,0.03926112719602079,-0.1048820218161028,-0.6465559281062757,0.1075192764401436,0.9840199947357178,0.1419303864240646,23.8426570892334,33.79723739624023,13.74941253662109,1,10919.70826254167,walking,0,2016-03-02 02:43:06.268,2016-03-02 02:41:14.235,43,40.74703,1,1,2016-03-02 02:43:06.303,10923.35291041667,0,-2.282654,97.42686,192.168.1.101,100.78.239.175,2,1,0.38,0
2016-03-02 02:43:10.075,111,234B9614-18C8-49ED-8B56-CAB6C4F40872,my_iOS_device_1,1456908189.995615,40.7992377737917,-96.68579430328373,369.9427,0.63,330.1171875,4,14.65219717916196,-9999,1456908190.071507,26.49387550354004,38.71955871582031,14.23919677734375,285.7323913574219,282.4552612304688,25,10923.48841041667,0.0928802490234375,0.9897613525390625,0.1494903564453125,10923.48043041667,-0.05376416240262867,0.03815084787982112,-0.03383839112665581,10923.44541941667,2.710963993867905,2.505840245592121,-1.391952685615876,-0.03125724568963051,-0.0004359429003670812,-0.04130595177412033,-0.002433938672766089,0.01868126541376114,0.006659332662820816,XArbitraryCorrectedZVertical,0.7549618124097781,0.04000951855232707,-0.1042022183360447,-0.6461995031892138,0.1056291311979294,0.9840500354766846,0.143136203289032,23.75322723388672,33.83999633789062,13.79894542694092,1,10919.70826254167,walking,0,2016-03-02 02:43:06.268,2016-03-02 02:41:14.235,43,40.74703,1,1,2016-03-02 02:43:06.303,10923.35291041667,0,-2.282654,97.42686,192.168.1.101,100.78.239.175,2,1,0.38,0
